SessionID,LoggingTime,UID,RecNo,Hertz,Activity,MoveType,Wrist,Side,TimeStamp,DMRoll,DMPitch,DMYaw,DMRotX,DMRotY,DMRotZ,DMGrvX,DMGrvY,DMGrvZ,DMUAccelX,DMUAccelY,DMUAccelZ,DMQuatX,DMQuatY,DMQuatW,DMQuatZ,AccelroX,AceelroY,AceelroZ
20220130-1533,2022-01-30 15:33:44Z,u01, 1,40,movements,el-ex, rt, d,70906.55967087501, 1.7927121470838099, -0.38405036123959113, 2.8331793371080236, -0.009636111557483673, -0.0011160578578710556, 0.002673541195690632, 0.9044187068939209, 0.3746788501739502, 0.2040657252073288, 0.005234062671661377, -0.00483626127243042, -0.00037598609924316406, -0.7759077645067077, 0.0, 0.24144547906480276,0.5828132835299058,0.907684326171875,0.36614990234375,0.198486328125
20220130-1533,2022-01-30 15:33:44Z,u01, 2,40,movements,el-ex, rt, d,70906.584616875, 1.7928724826348572, -0.3835580626297632, 2.8333647378060753, 0.015954237431287766, -0.036401279270648956, 0.017914079129695892, 0.9045656323432922, 0.37422236800193787, 0.20425128936767578, -0.008706927299499512, 0.006774336099624634, -0.007306009531021118, -0.7759675461691807, 0.00010212098990361462, 0.24120944358635296,0.582831293657712,0.8952484130859375,0.38018798828125,0.1967926025390625
20220130-1533,2022-01-30 15:33:44Z,u01, 3,40,movements,el-ex, rt, d,70906.60956187501, 1.791559826276557, -0.38285984889409824, 2.8332194811425313, -0.04583679139614105, -0.1025373563170433, 0.05221991986036301, 0.9050877690315247, 0.37357479333877563, 0.20312091708183289, 0.010927855968475342, -0.002328425645828247, 0.005314230918884277, -0.7756032562581513, 0.00021974785399578312, 0.24099382676370348,0.5834051455766333,0.916168212890625,0.36907958984375,0.210205078125
20220130-1533,2022-01-30 15:33:44Z,u01, 4,40,movements,el-ex, rt, d,70906.634507875, 1.791893896616771, -0.38268427278236833, 2.8351020390077473, -0.06869064271450043, 0.31803661584854126, -0.2107095718383789, 0.905083954334259, 0.3734119236469269, 0.2034376859664917, 0.17259860038757324, -0.019118070602416992, -0.0862957239151001, -0.7757052711470264, -0.0004149299234774695, 0.24037974926613778,0.583522821759956,0.7783355712890625,0.391815185546875,0.16265869140625
20220130-1533,2022-01-30 15:33:44Z,u01, 5,40,movements,el-ex, rt, d,70906.659452875, 1.791853427807846, -0.38291167827258316, 2.8334748577337776, 0.15458478033542633, 0.00038836151361465454, 0.009215063415467739, 0.9050090312957764, 0.373622864484787, 0.20338235795497894, -0.002222895622253418, 0.023593902587890625, -0.021207600831985474, -0.775687540615282, 0.0001397639631487979, 0.24093845745096912,0.5833158575111986,0.896514892578125,0.395751953125,0.194671630859375
20220130-1533,2022-01-30 15:33:44Z,u01, 6,40,movements,el-ex, rt, d,70906.684398875, 1.7903907537716215, -0.3830823377677588, 2.8304950896415466, 0.014445755630731583, -0.01598881371319294, 0.012305861338973045, 0.9052436947822571, 0.3737811744213104, 0.20204460620880127, 0.002486586570739746, -0.0032824277877807617, 0.02595236897468567, -0.775255550984821, 0.0010649275230311395, 0.24187117280137527,0.5835034348418312,0.9077606201171875,0.3719024658203125,0.2282562255859375
20220130-1533,2022-01-30 15:33:44Z,u01, 7,40,movements,el-ex, rt, d,70906.709343875, 1.7904970035713061, -0.3828199787719848, 2.830964177300299, 0.018172284588217735, 0.022735614329576492, -0.012446423061192036, 0.9053176641464233, 0.3735378086566925, 0.20216210186481476, -0.004301488399505615, 0.009930819272994995, 0.005937442183494568, -0.7752935540274376, 0.0009784913579697352, 0.2416373776211395,0.583549810805978,0.8999481201171875,0.3908538818359375,0.208282470703125
20220130-1533,2022-01-30 15:33:44Z,u01, 8,40,movements,el-ex, rt, d,70906.734289875, 1.7899054678896873, -0.38342996242863037, 2.8281780374253263, 0.1608738750219345, 0.054833561182022095, 0.015691936016082764, 0.9052144885063171, 0.3741035759449005, 0.20157696306705475, 0.004667103290557861, 0.0011405646800994873, -0.023781433701515198, -0.7751033876282959, 0.0017947384993799997, 0.24267572794169762,0.5833695385861727,0.9102325439453125,0.3757476806640625,0.1756744384765625
20220130-1533,2022-01-30 15:33:44Z,u01, 9,40,movements,el-ex, rt, d,70906.759234875, 1.7893793338441424, -0.3835849268668789, 2.824867318339194, 0.03151402249932289, 0.004470521584153175, 0.022753309458494186, 0.9052638411521912, 0.374247282743454, 0.2010881006717682, 0.0018559098243713379, -0.008433043956756592, 0.02462005615234375, -0.7749421026375131, 0.0029649017590048787, 0.24369901423999904,0.5831524423387252,0.9056549072265625,0.365142822265625,0.229400634765625
20220130-1533,2022-01-30 15:33:44Z,u01, 10,40,movements,el-ex, rt, d,70906.784179875, 1.7901968379464324, -0.3830944743682026, 2.8267063958067147, -0.12439244985580444, 0.01339697279036045, -0.027877576649188995, 0.9052780866622925, 0.3737924098968506, 0.2018679976463318, -0.009068489074707031, 0.001985788345336914, 0.02074262499809265, -0.7751952762115162, 0.002506111165516217, 0.2429807978895095,0.5831177191350312,0.89654541015625,0.3729248046875,0.222900390625
20220130-1533,2022-01-30 15:33:44Z,u01, 11,40,movements,el-ex, rt, d,70906.809125875, 1.7914073123923047, -0.38369024441826727, 2.8283477274774977, 0.011229123920202255, 0.06279614567756653, -0.01342387031763792, 0.904815673828125, 0.37434494495391846, 0.20291490852832794, 0.0027313232421875, 0.008803218603134155, -0.031283870339393616, -0.7755347253271849, 0.001829280853902715, 0.24272095693292334,0.582777046430548,0.9066925048828125,0.3810272216796875,0.172454833984375
20220130-1533,2022-01-30 15:33:44Z,u01, 12,40,movements,el-ex, rt, d,70906.834070875, 1.791416860998455, -0.3838120604904526, 2.8269909345775504, 0.0574425607919693, -0.006355760619044304, 0.013736645691096783, 0.904769241809845, 0.3744578957557678, 0.2029135674238205, 0.002670884132385254, 0.009468495845794678, 0.011258929967880249, -0.7755329851548203, 0.0023182344817756773, 0.24316120529433288,0.5825940638028834,0.908203125,0.384674072265625,0.2149658203125
20220130-1533,2022-01-30 15:33:44Z,u01, 13,40,movements,el-ex, rt, d,70906.85901687501, 1.7930318868424113, -0.38324419945677607, 2.828425327284422, -0.1308891773223877, 0.01973782479763031, -0.0392635241150856, 0.9046475291252136, 0.37393128871917725, 0.20442134141921997, -0.003478825092315674, 0.0043187737464904785, 0.026688307523727417, -0.7760194002836748, 0.002136515913118975, 0.24253200601364486,0.5822091468304411,0.8991851806640625,0.380767822265625,0.2356109619140625
20220130-1533,2022-01-30 15:33:44Z,u01, 14,40,movements,el-ex, rt, d,70906.883961875, 1.7965703555761847, -0.3842252512956643, 2.833745570535193, -0.21629178524017334, 0.11543644964694977, -0.10276946425437927, 0.9035606980323792, 0.37484097480773926, 0.20753894746303558, -0.01159292459487915, 0.05126070976257324, 0.06270968914031982, -0.7770260190685755, 0.00019093509376563733, 0.24134519582613603,0.5813631254654037,0.892547607421875,0.4233551025390625,0.2687530517578125
20220130-1533,2022-01-30 15:33:44Z,u01, 15,40,movements,el-ex, rt, d,70906.90890787501, 1.8032732468162604, -0.38705495491286995, 2.840375460655566, -0.22134390473365784, 0.23683646321296692, -0.20811179280281067, 0.9011135101318359, 0.37746286392211914, 0.213345468044281, -0.014135360717773438, 0.07831719517707825, 0.08603203296661377, -0.7788880877515094, -0.002466020882565284, 0.24047493220051064,0.5792228422202934,0.885528564453125,0.4600677490234375,0.3024749755859375
20220130-1533,2022-01-30 15:33:44Z,u01, 16,40,movements,el-ex, rt, d,70906.93385287501, 1.8138766127161465, -0.3918640303503607, 2.847756203202387, -0.21587297320365906, 0.3871902823448181, -0.29839667677879333, 0.8970285654067993, 0.3819118142127991, 0.2224486619234085, -0.01813751459121704, 0.1044011116027832, 0.11547267436981201, -0.7817885443652101, -0.005568288530384186, 0.24015680458416172,0.5754133245163405,0.87982177734375,0.4836883544921875,0.3351287841796875
20220130-1533,2022-01-30 15:33:44Z,u01, 17,40,movements,el-ex, rt, d,70906.958798875, 1.8291864529262172, -0.3991493840299726, 2.856204412985542, -0.2877557575702667, 0.5878867506980896, -0.4300384819507599, 0.8908039927482605, 0.38863474130630493, 0.23543813824653625, -0.02828580141067505, 0.1451481580734253, 0.1581013947725296, -0.7858961744283052, -0.009288227507566554, 0.24052402998353034,0.5695867310549927,0.857757568359375,0.5503082275390625,0.407073974609375
20220130-1533,2022-01-30 15:33:44Z,u01, 18,40,movements,el-ex, rt, d,70906.98374387501, 1.8524232557151876, -0.40920944137981574, 2.870057625315821, -0.41472527384757996, 0.8320925235748291, -0.6252002716064453, 0.881292998790741, 0.39788416028022766, 0.2549726963043213, -0.01965963840484619, 0.17877599596977234, 0.16699397563934326, -0.7919978549810424, -0.015024853986217335, 0.2405487450391743,0.5609367506119418,0.860992431640625,0.577484130859375,0.4223785400390625
20220130-1533,2022-01-30 15:33:44Z,u01, 19,40,movements,el-ex, rt, d,70907.008689875, 1.881045674103167, -0.4237878563611179, 2.883323672625277, -0.1056661382317543, 1.0297380685806274, -0.756057620048523, 0.8680186867713928, 0.4112161695957184, 0.27828893065452576, -0.005469977855682373, 0.19017845392227173, 0.11070343852043152, -0.7991836630276299, -0.021211625305509407, 0.24268782487492507,0.5495071511929693,0.861175537109375,0.6026611328125,0.3838348388671875
20220130-1533,2022-01-30 15:33:44Z,u01, 20,40,movements,el-ex, rt, d,70907.033634875, 1.9110080069593094, -0.4431278843268032, 2.8897667674008396, 0.07921905815601349, 1.1444511413574219, -0.878085196018219, 0.8516348004341125, 0.4287673234939575, 0.3014574646949768, -0.0061911940574646, 0.12926176190376282, 0.1280011534690857, -0.80626505273908, -0.02579537876429519, 0.24874564342247313,0.5360940229661422,0.8457183837890625,0.55889892578125,0.4239959716796875
20220130-1533,2022-01-30 15:33:44Z,u01, 21,40,movements,el-ex, rt, d,70907.058580875, 1.9452082955430887, -0.4650323954162031, 2.898582307760383, -0.061145439743995667, 1.2871613502502441, -0.9968029856681824, 0.8318867683410645, 0.4484517574310303, 0.32688790559768677, 0.010154366493225098, 0.14082753658294678, 0.1776898205280304, -0.8139173908748255, -0.03134376572726247, 0.25543093696305763,0.5208754061766818,0.8428955078125,0.6014556884765625,0.5227508544921875
20220130-1533,2022-01-30 15:33:44Z,u01, 22,40,movements,el-ex, rt, d,70907.0835265, 1.986147634060965, -0.48823094672759254, 2.9143996006116706, -0.2561343312263489, 1.4457731246948242, -1.1444716453552246, 0.8080727458000183, 0.46906426548957825, 0.35636675357818604, 0.05287390947341919, 0.13788461685180664, 0.19734427332878113, -0.8225947245436488, -0.03900388759819884, 0.26123598386102803,0.5035597318615922,0.8607635498046875,0.609466552734375,0.55535888671875
20220130-1533,2022-01-30 15:33:44Z,u01, 23,40,movements,el-ex, rt, d,70907.10847250001, 2.0348977689525576, -0.5129016459434362, 2.9360083278908973, -0.1946549266576767, 1.6374127864837646, -1.2926865816116333, 0.7791594862937927, 0.4907075762748718, 0.3900218605995178, 0.0793459415435791, 0.08140552043914795, 0.16474217176437378, -0.8322812156949844, -0.04815500131505063, 0.2668204660512542,0.48352464737040723,0.8535308837890625,0.5752716064453125,0.5543365478515625
20220130-1533,2022-01-30 15:33:44Z,u01, 24,40,movements,el-ex, rt, d,70907.13341750001, 2.088568185890656, -0.5418535997559686, 2.9553120623098, 0.19082042574882507, 1.8726805448532104, -1.34836745262146, 0.7444547414779663, 0.5157249569892883, 0.4240466356277466, 0.08357882499694824, 0.18054890632629395, 0.13027483224868774, -0.8419259084712494, -0.056427627722386214, 0.27540839017567315,0.4605725953975217,0.8279876708984375,0.6914825439453125,0.5540924072265625
20220130-1533,2022-01-30 15:33:44Z,u01, 25,40,movements,el-ex, rt, d,70907.1583625, 2.142636528222387, -0.5764038588542534, 2.968880160599093, 0.29962679743766785, 1.871575117111206, -1.5204702615737915, 0.7050396800041199, 0.545012354850769, 0.4537408649921417, 0.1170581579208374, 0.12730515003204346, 0.17722547054290771, -0.8502331743479583, -0.06303951006195513, 0.2881821972615273,0.43598239540788813,0.8176422119140625,0.642547607421875,0.6527557373046875
20220130-1533,2022-01-30 15:33:44Z,u01, 26,40,movements,el-ex, rt, d,70907.18330850001, 2.2076058585074994, -0.6063354794885135, 2.999042476074822, -0.5933064222335815, 1.940103530883789, -1.6160088777542114, 0.6606779098510742, 0.5698599815368652, 0.4886350631713867, 0.108395516872406, 0.03440326452255249, 0.26998621225357056, -0.8596124716133612, -0.07337524539937532, 0.29650071702463243,0.4095970970690086,0.76776123046875,0.6029052734375,0.7611083984375
20220130-1533,2022-01-30 15:33:44Z,u01, 27,40,movements,el-ex, rt, d,70907.20825350001, 2.2837649314331454, -0.6269673665026241, 3.046910874617634, -0.602104902267456, 2.027909278869629, -1.6367619037628174, 0.6125598549842834, 0.5866916179656982, 0.5296827554702759, 0.17654848098754883, 0.07163369655609131, 0.08385807275772095, -0.8701974868448412, -0.0871648842883202, 0.2988487917845374,0.3819007315719911,0.782989501953125,0.6794281005859375,0.5884552001953125
20220130-1533,2022-01-30 15:33:44Z,u01, 28,40,movements,el-ex, rt, d,70907.2331995, 2.3592449737485737, -0.6565882428444453, 3.0839806650461568, 0.48209699988365173, 2.214360475540161, -1.710410714149475, 0.5583738088607788, 0.6104180216789246, 0.5617908835411072, 0.13165920972824097, 0.23749768733978271, 0.050407230854034424, -0.8782678288078477, -0.09767828752940369, 0.3083444352698758,0.35217668916829636,0.6917266845703125,0.8428955078125,0.6069488525390625
20220130-1533,2022-01-30 15:33:44Z,u01, 29,40,movements,el-ex, rt, d,70907.25814450001, 2.4320126826877013, -0.6955010302842417, 3.1116888300624566, 0.2693437337875366, 2.185760021209717, -1.6995004415512085, 0.5001896619796753, 0.6407701969146729, 0.5824295282363892, 0.1939631700515747, 0.08538037538528442, 0.1597275733947754, -0.8832606807788057, -0.10519188665580836, 0.32440699635838693,0.3217847428520756,0.6951141357421875,0.6764984130859375,0.752777099609375
20220130-1533,2022-01-30 15:33:44Z,u01, 30,40,movements,el-ex, rt, d,70907.2830905, 2.518706268401022, -0.7159110082663485, -3.1218002358738044, -0.6128789186477661, 2.1803505420684814, -1.6757302284240723, 0.44015923142433167, 0.6563050150871277, 0.6128000020980835, 0.19019657373428345, -0.045129477977752686, 0.12929606437683105, -0.8904506429709236, -0.11617942354326352, 0.3306484348543235,0.290295888215113,0.6363067626953125,0.5997161865234375,0.74896240234375
20220130-1533,2022-01-30 15:33:44Z,u01, 31,40,movements,el-ex, rt, d,70907.3080355, 2.607654436788217, -0.7330772857748652, -3.071214291778327, 0.22704146802425385, 2.3005614280700684, -1.622570514678955, 0.3781937062740326, 0.6691595911979675, 0.6396841406822205, 0.18781587481498718, 0.11492878198623657, -0.021016180515289307, -0.8966178638474536, -0.12616840892064946, 0.336811422579135,0.25829489546736395,0.5534820556640625,0.805328369140625,0.6161651611328125
20220130-1533,2022-01-30 15:33:44Z,u01, 32,40,movements,el-ex, rt, d,70907.3329815, 2.6920668179760576, -0.7663431305199068, -3.032624666320794, 0.8364919424057007, 2.3506174087524414, -1.659692406654358, 0.31306394934654236, 0.6935052871704102, 0.6488770246505737, 0.18423518538475037, 0.06908315420150757, 0.004580676555633545, -0.8982752508369232, -0.13243895051095117, 0.35266231006829596,0.22625380961898128,0.498504638671875,0.762115478515625,0.649749755859375
20220130-1533,2022-01-30 15:33:44Z,u01, 33,40,movements,el-ex, rt, d,70907.3579265, 2.7811417392332687, -0.7979834551861604, -2.987563324525513, 0.31074246764183044, 2.213771104812622, -1.7343246936798096, 0.2462356835603714, 0.7159497141838074, 0.6532875895500183, 0.2299911379814148, 0.0072255730628967285, 0.11627441644668579, -0.898483894305996, -0.13917790124209634, 0.3683561803763379,0.19408793223893328,0.46942138671875,0.7239837646484375,0.77862548828125
20220130-1533,2022-01-30 15:33:44Z,u01, 34,40,movements,el-ex, rt, d,70907.3828725, 2.8790293910466085, -0.8099001939760924, -2.927263640056327, -0.20193427801132202, 2.1732370853424072, -1.7409106492996216, 0.1789829283952713, 0.7242183685302734, 0.6659381985664368, 0.1979396790266037, -0.0027521252632141113, 0.040788233280181885, -0.9004695948353825, -0.14874005527026507, 0.3754729205155524,0.16140392499496883,0.38299560546875,0.71502685546875,0.7147979736328125
20220130-1533,2022-01-30 15:33:44Z,u01, 35,40,movements,el-ex, rt, d,70907.4078175, 2.978414931311352, -0.8214531654459256, -2.866320783546028, 0.4615213871002197, 2.2413530349731445, -1.7414413690567017, 0.11065717041492462, 0.7321364283561707, 0.6721093654632568, 0.18894906342029572, 0.11481773853302002, -0.02319890260696411, -0.9006749390285264, -0.1576049612373271, 0.38393232230667984,0.1286126889624987,0.289642333984375,0.863250732421875,0.6429595947265625
20220130-1533,2022-01-30 15:33:44Z,u01, 36,40,movements,el-ex, rt, d,70907.43276350001, 3.0800464776948284, -0.8443149972136836, -2.804632032706269, 0.7854481935501099, 2.2384674549102783, -1.7759603261947632, 0.04085584357380867, 0.7475162744522095, 0.6629858613014221, 0.18607279658317566, 0.06255751848220825, 0.02066892385482788, -0.8967511853768083, -0.16531860323134984, 0.39903037960127863,0.09634229453810372,0.2298126220703125,0.811767578125,0.673553466796875
20220130-1533,2022-01-30 15:33:45Z,u01, 37,40,movements,el-ex, rt, d,70907.4577085, -3.096976529320829, -0.8516864337325364, -2.7353401206252372, -0.3942749798297882, 2.0756173133850098, -1.8647974729537964, -0.02937956340610981, 0.7523923516273499, 0.6580595374107361, 0.22296777367591858, -0.013775527477264404, 0.20107126235961914, -0.8936044412664012, -0.17464499763289848, 0.4085933734401894,0.06341621018113269,0.1976470947265625,0.72576904296875,0.85986328125
20220130-1533,2022-01-30 15:33:45Z,u01, 38,40,movements,el-ex, rt, d,70907.48265450001, -2.9951857644922337, -0.8320153850210494, -2.66854651363396, -0.4071921110153198, 2.115846872329712, -1.8143939971923828, -0.09823676198720932, 0.7392899990081787, 0.6661834716796875, 0.20584166049957275, 0.06699985265731812, -0.008910834789276123, -0.8937869825199516, -0.18503129176641106, 0.40748492526549296,0.02940195243916248,0.114288330078125,0.798675537109375,0.67279052734375
20220130-1533,2022-01-30 15:33:45Z,u01, 39,40,movements,el-ex, rt, d,70907.50759950001, -2.8895633103738074, -0.8288751275701961, -2.6009758972472605, 0.8499863147735596, 2.3180816173553467, -1.8252943754196167, -0.16850049793720245, 0.7371717691421509, 0.6543589234352112, 0.15961980819702148, 0.17837083339691162, -0.008866190910339355, -0.8886250627681291, -0.19371357301608408, 0.4156958501160986,-0.004191101611238313,-0.0183563232421875,0.9188995361328125,0.6485137939453125
20220130-1533,2022-01-30 15:33:45Z,u01, 40,40,movements,el-ex, rt, d,70907.5325445, -2.7751466467723427, -0.8380368099343752, -2.5248302818557575, 0.6871370077133179, 2.2755537033081055, -1.9130486249923706, -0.2396751344203949, 0.7433313131332397, 0.6245115995407104, 0.20726534724235535, 0.02287358045578003, 0.14089995622634888, -0.8783267944202107, -0.2019847438997433, 0.431698086576509,-0.03716286521533026,-0.0318450927734375,0.7740325927734375,0.760833740234375
20220130-1533,2022-01-30 15:33:45Z,u01, 41,40,movements,el-ex, rt, d,70907.55749050001, -2.6727487589396866, -0.8190726328336506, -2.45997868618173, -0.6282987594604492, 2.0989224910736084, -1.8831924200057983, -0.30857157707214355, 0.7305128574371338, 0.6092084050178528, 0.2211538553237915, -0.150312602519989, 0.17124825716018677, -0.8718153195100081, -0.21105037911453442, 0.4362371136944891,-0.07136578377231267,-0.10205078125,0.5760040283203125,0.7631072998046875
20220130-1533,2022-01-30 15:33:45Z,u01, 42,40,movements,el-ex, rt, d,70907.58243550001, -2.586622515747803, -0.7832338032576497, -2.4143117974352286, -0.2917748987674713, 2.1731064319610596, -1.7409648895263672, -0.37339290976524353, 0.7055746912956238, 0.6022810339927673, 0.18575546145439148, 0.018119215965270996, -0.04568606615066528, -0.8679963124200203, -0.2184557730765185, 0.43313629038503243,-0.10607802339321232,-0.18505859375,0.7172088623046875,0.56134033203125
20220130-1533,2022-01-30 15:33:45Z,u01, 43,40,movements,el-ex, rt, d,70907.6073815, -2.4932342513502013, -0.764677025111504, -2.3595221432916613, 0.7917268872261047, 2.2524330615997314, -1.6990227699279785, -0.4357626438140869, 0.6923039555549622, 0.5751751065254211, 0.20286759734153748, 0.07281750440597534, -0.04047650098800659, -0.858377291403996, -0.22533527009665366, 0.43960236176198025,-0.13842794135283476,-0.2395782470703125,0.752899169921875,0.536102294921875
20220130-1533,2022-01-30 15:33:45Z,u01, 44,40,movements,el-ex, rt, d,70907.63232650001, -2.394561557651368, -0.7537912866715728, -2.296787953288355, 0.6508618593215942, 2.1689953804016113, -1.6837481260299683, -0.49539634585380554, 0.6844078898429871, 0.5349469780921936, 0.23602741956710815, -0.057317495346069336, 0.054469525814056396, -0.8446658193452792, -0.23240730323551698, 0.4516310228423399,-0.16898496315856817,-0.2574615478515625,0.6350555419921875,0.584381103515625
20220130-1533,2022-01-30 15:33:45Z,u01, 45,40,movements,el-ex, rt, d,70907.6572725, -2.3136624147092535, -0.7274228364869675, -2.252562775239439, -0.19234547019004822, 1.94905686378479, -1.630469799041748, -0.5501097440719604, 0.664946973323822, 0.5051982402801514, 0.2513729929924011, -0.10986268520355225, 0.09430450201034546, -0.8340239618199101, -0.23875330565959377, 0.4557022658638168,-0.19934013448921478,-0.308319091796875,0.549468994140625,0.5723114013671875
20220130-1533,2022-01-30 15:33:45Z,u01, 46,40,movements,el-ex, rt, d,70907.6822175, -2.243109414862941, -0.6962188771023201, -2.2202317781092393, 0.27710220217704773, 2.0203092098236084, -1.540544033050537, -0.6003011465072632, 0.6413211226463318, 0.4778553247451782, 0.20628869533538818, 0.016576766967773438, -0.00643506646156311, -0.8243323600830619, -0.24372899876572132, 0.4567243755990779,-0.22907458444353676,-0.3904266357421875,0.65093994140625,0.46905517578125
20220130-1533,2022-01-30 15:33:45Z,u01, 47,40,movements,el-ex, rt, d,70907.7071635, -2.164121087222804, -0.6747938594920384, -2.173864673226948, 0.854759931564331, 1.9555184841156006, -1.5428459644317627, -0.6473802924156189, 0.6247363686561584, 0.43658143281936646, 0.2172655463218689, 0.10246694087982178, 0.03518995642662048, -0.8098084986983594, -0.25000180911005787, 0.4648278622905906,-0.2562116229503491,-0.4352874755859375,0.7288818359375,0.483154296875
20220130-1533,2022-01-30 15:33:45Z,u01, 48,40,movements,el-ex, rt, d,70907.7321085, -2.0884975410876727, -0.651818714585988, -2.1282130114628193, 0.5499083995819092, 1.9009308815002441, -1.6110683679580688, -0.6908065676689148, 0.6066332459449768, 0.3934236168861389, 0.21276402473449707, -0.05640149116516113, 0.023660123348236084, -0.7942135343226839, -0.25678138126629974, 0.47306690557876346,-0.2819500076830703,-0.4736480712890625,0.552947998046875,0.4122314453125
20220130-1533,2022-01-30 15:33:45Z,u01, 49,40,movements,el-ex, rt, d,70907.7570545, -2.0232421606294166, -0.6205138399328999, -2.0950857416508626, 0.2577633261680603, 1.7515058517456055, -1.5609701871871948, -0.7317178249359131, 0.581453263759613, 0.35566988587379456, 0.22463774681091309, -0.030962049961090088, 0.024014562368392944, -0.7801436372288911, -0.26307954962354896, 0.47660355058853204,-0.308243586611125,-0.5123138427734375,0.562347412109375,0.3607177734375
20220130-1533,2022-01-30 15:33:45Z,u01, 50,40,movements,el-ex, rt, d,70907.7819995, -1.962534343728473, -0.5902810049066733, -2.064843199477435, 0.7135502099990845, 1.7417798042297363, -1.5000717639923096, -0.7678498029708862, 0.5565944910049438, 0.3171895742416382, 0.21076667308807373, 0.004211723804473877, -0.06561794877052307, -0.765686241459689, -0.26892261558208314, 0.48031728957242115,-0.332716868350348,-0.55352783203125,0.5612030029296875,0.2537689208984375
20220130-1533,2022-01-30 15:33:45Z,u01, 51,40,movements,el-ex, rt, d,70907.80694550001, -1.8980277056009769, -0.5617640408288154, -2.026135486300767, 0.71208655834198, 1.709059715270996, -1.5221434831619263, -0.8014078140258789, 0.5326799750328064, 0.27202531695365906, 0.19883811473846436, 0.019657671451568604, -0.010474324226379395, -0.7480939883508597, -0.2763476954805898, 0.48738170543462495,-0.35559313082550736,-0.6046600341796875,0.5245513916015625,0.26971435546875
20220130-1533,2022-01-30 15:33:45Z,u01, 52,40,movements,el-ex, rt, d,70907.8318905, -1.8482542366693384, -0.5285645898115507, -2.0067519194104033, -0.17355464398860931, 1.4800658226013184, -1.4141799211502075, -0.8305060863494873, 0.5042943358421326, 0.23653149604797363, 0.22268736362457275, -0.15280818939208984, -0.001988530158996582, -0.7342497391077526, -0.2813237727425219, 0.4883976647725248,-0.3784205206601974,-0.606658935546875,0.356414794921875,0.24163818359375
20220130-1533,2022-01-30 15:33:45Z,u01, 53,40,movements,el-ex, rt, d,70907.8568355, -1.8114346269473272, -0.49315027463930994, -2.006164508429925, -0.2939389646053314, 1.4441728591918945, -1.318906545639038, -0.8554652333259583, 0.47340312600135803, 0.20992547273635864, 0.19756728410720825, -0.015746355056762695, 0.03004954755306244, -0.7243621066416296, -0.2833059680713268, 0.4837270708176843,-0.40130460815657243,-0.6600494384765625,0.4676513671875,0.2098236083984375
20220130-1533,2022-01-30 15:33:45Z,u01, 54,40,movements,el-ex, rt, d,70907.88178150001, -1.7708878284749547, -0.46263765312404603, -1.9981826108501473, 0.3885062634944916, 1.5208306312561035, -1.1744600534439087, -0.8770241737365723, 0.44631004333496094, 0.1778651475906372, 0.16875696182250977, -0.020727217197418213, -0.0739833265542984, -0.7122556827915669, -0.28569987318708523, 0.48261259378843424,-0.4220811979376595,-0.7068939208984375,0.4322967529296875,0.1029052734375
20220130-1533,2022-01-30 15:33:45Z,u01, 55,40,movements,el-ex, rt, d,70907.9067265, -1.725229576989983, -0.4381350863029313, -1.9785583780159064, 0.5343921184539795, 1.4503282308578491, -1.02772855758667, -0.8947674632072449, 0.4242514371871948, 0.1392909586429596, 0.1870037317276001, -0.10181805491447449, -0.0433589369058609, -0.6971765155481077, -0.28912001825427375, 0.4866828113416265,-0.43987997290099884,-0.7124786376953125,0.2769012451171875,0.1024932861328125
20220130-1533,2022-01-30 15:33:45Z,u01, 56,40,movements,el-ex, rt, d,70907.93167250001, -1.690431656071853, -0.41573942728871216, -1.9743481343707867, -0.5024015307426453, 1.1701961755752563, -0.7691771984100342, -0.9082790017127991, 0.4038664698600769, 0.1091836541891098, 0.19833332300186157, -0.35839536786079407, -0.05132223665714264, -0.6863050000020673, -0.28909734553381256, 0.4866251244324886,-0.4567320213206665,-0.710662841796875,0.053253173828125,0.0654296875
20220130-1533,2022-01-30 15:33:45Z,u01, 57,40,movements,el-ex, rt, d,70907.9566175, -1.6757302378355738, -0.39764745735659157, -1.9984937078140532, -1.190767765045166, 0.776243269443512, -0.4890941381454468, -0.9169031977653503, 0.3872504234313965, 0.09656894207000732, 0.20425677299499512, -0.34829482436180115, -0.15641380846500397, -0.6842617905670993, -0.28296691415022523, 0.4782498621238813,-0.47222090144443724,-0.71856689453125,0.0491790771484375,-0.1011505126953125
20220130-1533,2022-01-30 15:33:45Z,u01, 58,40,movements,el-ex, rt, d,70907.9815635, -1.6694005641501688, -0.388148095704781, -2.0212771345004614, -0.3572409749031067, 0.3900178074836731, -0.05654910206794739, -0.921115517616272, 0.3784749209880829, 0.09112139791250229, 0.1808963418006897, -0.20606592297554016, -0.4319721460342407, -0.6848460046381797, -0.27667065267590785, 0.4711140861380212,-0.48217307393469666,-0.7419586181640625,0.1711273193359375,-0.3265380859375
20220130-1533,2022-01-30 15:33:45Z,u01, 59,40,movements,el-ex, rt, d,70908.00650850001, -1.6624744059462098, -0.3928872266725192, -2.0117536585235203, 0.9620501399040222, -0.07753906399011612, 0.3798081874847412, -0.9199281334877014, 0.3828572630882263, 0.08457431942224503, 0.20661014318466187, -0.3210896849632263, -0.6468453407287598, -0.6824065254264888, -0.27678239576491237, 0.4756559171496547,-0.4811074667953476,-0.70599365234375,0.0341796875,-0.5687103271484375
20220130-1533,2022-01-30 15:33:45Z,u01, 60,40,movements,el-ex, rt, d,70908.0314545, -1.66356071955576, -0.409459005525908, -1.9888472410204914, 0.5339107513427734, -0.7596091032028198, 0.7924936413764954, -0.9133924841880798, 0.39811310172080994, 0.08497417718172073, 0.27134817838668823, -0.49224457144737244, -0.46616923809051514, -0.6814075201718099, -0.27959055822207457, 0.4854061847323808,-0.47105620898680634,-0.644134521484375,-0.0916900634765625,-0.3900909423828125
20220130-1533,2022-01-30 15:33:45Z,u01, 61,40,movements,el-ex, rt, d,70908.0563995, -1.6933182915969356, -0.43339638916959755, -1.9931020096125711, -0.5356801748275757, -1.4219728708267212, 1.155247688293457, -0.900741457939148, 0.4199555814266205, 0.11091618239879608, 0.2566678524017334, -0.48216569423675537, -0.4009246826171875, -0.6915865500171485, -0.2777879308782144, 0.48667105338732286,-0.455733831351973,-0.6475372314453125,-0.0306854248046875,-0.2854156494140625
20220130-1533,2022-01-30 15:33:45Z,u01, 62,40,movements,el-ex, rt, d,70908.081344875, -1.7421130266805778, -0.4643304275311959, -2.011284935332469, -0.18578484654426575, -1.8137210607528687, 1.4577655792236328, -0.8810328245162964, 0.4478242099285126, 0.15242980420589447, 0.2483881115913391, -0.28435683250427246, -0.3779851198196411, -0.7080788676920602, -0.27356757918217794, 0.4842957782234782,-0.435020462948636,-0.6337738037109375,0.153900146484375,-0.2321014404296875
20220130-1533,2022-01-30 15:33:45Z,u01, 63,40,movements,el-ex, rt, d,70908.10628987501, -1.7915767174940094, -0.5035020033251391, -2.0157215194994156, 0.3350697159767151, -1.9723021984100342, 1.6705840826034546, -0.8546375632286072, 0.48249590396881104, 0.19181399047374725, 0.24115777015686035, -0.14866405725479126, -0.23672053217887878, -0.7224945909287175, -0.27186128846467045, 0.4874448128626897,-0.4080327012734687,-0.61114501953125,0.3578948974609375,0.0012054443359375
20220130-1533,2022-01-30 15:33:45Z,u01, 64,40,movements,el-ex, rt, d,70908.131235875, -1.8487243237895905, -0.5450223407166211, -2.027520332242368, -0.43727609515190125, -2.1179330348968506, 1.730379581451416, -0.8223015069961548, 0.5184372067451477, 0.23461274802684784, 0.21754992008209229, -0.11862647533416748, 0.00017437338829040527, -0.7382695757186675, -0.2688204013715153, 0.48905847009883324,-0.3788343125599801,-0.6045989990234375,0.4013671875,0.2245941162109375
20220130-1533,2022-01-30 15:33:45Z,u01, 65,40,movements,el-ex, rt, d,70908.156180875, -1.9219311747315992, -0.5804641379058993, -2.0630410529801004, -0.6486122608184814, -2.187800407409668, 1.7601855993270874, -0.7851853966712952, 0.5484120845794678, 0.287625253200531, 0.1830735206604004, -0.10335904359817505, 0.0064269304275512695, -0.7581544221158145, -0.26270611511045544, 0.4831017944887652,-0.35042848507389157,-0.5994720458984375,0.4685211181640625,0.282867431640625
20220130-1533,2022-01-30 15:33:45Z,u01, 66,40,movements,el-ex, rt, d,70908.181126875, -1.987476649855677, -0.621047480196344, -2.085717767974525, 0.4191540777683258, -2.017613410949707, 1.7938711643218994, -0.7436841130256653, 0.5818873643875122, 0.3291521370410919, 0.1825268268585205, 0.18726235628128052, -0.02220633625984192, -0.773317138137257, -0.2579857977324823, 0.482896868228475,-0.3197414093546497,-0.563934326171875,0.757354736328125,0.3081512451171875
20220130-1533,2022-01-30 15:33:45Z,u01, 67,40,movements,el-ex, rt, d,70908.206071875, -2.0404888937591896, -0.6651709132364205, -2.093653003752201, 0.17098313570022583, -1.9159601926803589, 1.6303985118865967, -0.7016057372093201, 0.6171936392784119, 0.3561204671859741, 0.15279269218444824, 0.2215057611465454, 0.19849076867103577, -0.7829211248865602, -0.25513671547331895, 0.4883189333881358,-0.2889368525034883,-0.54547119140625,0.824066162109375,0.583770751953125
20220130-1533,2022-01-30 15:33:45Z,u01, 68,40,movements,el-ex, rt, d,70908.231016875, -2.114333144312704, -0.6934558546413202, -2.1343913404605295, -1.1990362405776978, -1.9775545597076416, 1.6641963720321655, -0.6582114696502686, 0.6391986608505249, 0.39772263169288635, 0.12950950860977173, -0.12036925554275513, 0.14619237184524536, -0.7980164183625131, -0.24906046286532346, 0.48223122591592943,-0.2619006243986757,-0.531341552734375,0.5244293212890625,0.5544891357421875
20220130-1533,2022-01-30 15:33:45Z,u01, 69,40,movements,el-ex, rt, d,70908.255962875, -2.202805133821899, -0.7156491197632645, -2.1947807724456743, -0.34433019161224365, -1.9708956480026245, 1.7886511087417603, -0.6088979244232178, 0.6561074256896973, 0.44583261013031006, 0.12322580814361572, -0.05793231725692749, -0.11323672533035278, -0.8157132195810011, -0.2398504701169854, 0.47117484641847535,-0.23468721444636703,-0.4836578369140625,0.631072998046875,0.3145294189453125
20220130-1533,2022-01-30 15:33:45Z,u01, 70,40,movements,el-ex, rt, d,70908.280907875, -2.2636673721096616, -0.7623560011832852, -2.21416951919091, 1.3028521537780762, -1.7657073736190796, 1.826292872428894, -0.5564496517181396, 0.6906272172927856, 0.4619502127170563, 0.09487122297286987, 0.12722855806350708, -0.09181761741638184, -0.8222120788669511, -0.23439795631038604, 0.4776309883224232,-0.2022216642879979,-0.4633636474609375,0.8126220703125,0.3517608642578125
20220130-1533,2022-01-30 15:33:45Z,u01, 71,40,movements,el-ex, rt, d,70908.305853875, -2.3265607055225535, -0.8051406248226567, -2.241112356794013, -0.5943623185157776, -1.860238790512085, 1.8423619270324707, -0.5043361783027649, 0.7209281325340271, 0.4752974212169647, 0.14735674858093262, -0.0675620436668396, 0.15951400995254517, -0.8281033224104573, -0.2278016502049692, 0.48254105495076405,-0.17177135684044872,-0.324554443359375,0.60980224609375,0.641326904296875
20220130-1533,2022-01-30 15:33:45Z,u01, 72,40,movements,el-ex, rt, d,70908.330798875, -2.4320548889316, -0.8151660836944217, -2.3186220064907888, -1.044267177581787, -2.04595947265625, 1.7641685009002686, -0.44675302505493164, 0.7278395295143127, 0.5202513933181763, 0.16774597764015198, -0.02295970916748047, 0.0062988996505737305, -0.8441220387407157, -0.21813684628219038, 0.4682374616829362,-0.1436245698287804,-0.274688720703125,0.6841583251953125,0.5435028076171875
20220130-1533,2022-01-30 15:33:45Z,u01, 73,40,movements,el-ex, rt, d,70908.355744875, -2.517599941856949, -0.8475645012713154, -2.367830446575714, 1.5181653499603271, -1.965733289718628, 1.9235832691192627, -0.38668304681777954, 0.7496708035469055, 0.5370941758155823, 0.08080530166625977, 0.16954916715621948, -0.22172540426254272, -0.8510392888088533, -0.21042625313788466, 0.4680048765781338,-0.11146490396219091,-0.297149658203125,0.904815673828125,0.2932281494140625
20220130-1533,2022-01-30 15:33:45Z,u01, 74,40,movements,el-ex, rt, d,70908.380689875, -2.58804687050007, -0.9143830233445135, -2.39627826952094, 1.3323791027069092, -1.9466999769210815, 2.2218246459960938, -0.3208281993865967, 0.7921862006187439, 0.5191441178321838, 0.14640489220619202, -0.25135356187820435, 0.0011807084083557129, -0.8478205598131756, -0.20192166447541285, 0.4847557989821892,-0.07375547420449155,-0.18182373046875,0.5529022216796875,0.4929351806640625
20220130-1533,2022-01-30 15:33:45Z,u01, 75,40,movements,el-ex, rt, d,70908.40563587501, -2.7082269589183996, -0.9408943865045016, -2.482686980973976, -1.1013835668563843, -2.0896191596984863, 2.372901678085327, -0.24736501276493073, 0.8080852627754211, 0.5346109867095947, 0.26950544118881226, -0.41799432039260864, 0.19028842449188232, -0.8552331711421829, -0.18942468879182875, 0.48087651031851747,-0.03810963078786041,0.054595947265625,0.415496826171875,0.735870361328125
20220130-1533,2022-01-30 15:33:45Z,u01, 76,40,movements,el-ex, rt, d,70908.430580875, -2.842885134375664, -0.9431651466975149, -2.5865732527772747, -0.011666437610983849, -1.942466139793396, 2.281336784362793, -0.17281284928321838, 0.8094208240509033, 0.5612252354621887, 0.3220742642879486, 0.2843596935272217, 0.08222270011901855, -0.8657486287752377, -0.17632907543369825, 0.4683673210050578,-0.004411961135780282,0.1502532958984375,1.074493408203125,0.648162841796875
20220130-1533,2022-01-30 15:33:46Z,u01, 77,40,movements,el-ex, rt, d,70908.455526875, -2.9622832186138317, -0.9803826520921753, -2.674460527615415, 1.563605785369873, -1.815466284751892, 2.3958170413970947, -0.09928835928440094, 0.8307104706764221, 0.5477791428565979, 0.22036679089069366, 0.19739621877670288, -0.0578041672706604, -0.8645964387994872, -0.1623655450342823, 0.47445419632631486,0.03168048520175683,0.1097869873046875,0.9583740234375,0.4699859619140625
20220130-1533,2022-01-30 15:33:46Z,u01, 78,40,movements,el-ex, rt, d,70908.48047187501, -3.09971926320422, -1.0145529461935103, -2.7839958976397194, 0.4771033525466919, -1.911661148071289, 2.6564574241638184, -0.022102676331996918, 0.8492445945739746, 0.5275368094444275, 0.11399103701114655, -0.3859878182411194, 0.08824688196182251, -0.8617567380158188, -0.1454088762472713, 0.48120356821235516,0.06837188476673724,0.088958740234375,0.4793853759765625,0.6178741455078125
20220130-1533,2022-01-30 15:33:46Z,u01, 79,40,movements,el-ex, rt, d,70908.505417875, 3.0280158287816494, -1.0070775228553648, -2.909618793012645, -0.6504261493682861, -2.0478343963623047, 2.606828451156616, 0.06055748462677002, 0.8452738523483276, 0.5308905839920044, 0.1334426999092102, -0.11448478698730469, 0.12313169240951538, -0.8654235933696234, -0.12840292337652903, 0.4727602311053835,0.10513064254477317,0.2318267822265625,0.814910888671875,0.660369873046875
20220130-1533,2022-01-30 15:33:46Z,u01, 80,40,movements,el-ex, rt, d,70908.530362875, 2.893885717703459, -0.9746246268190585, -3.011715040130628, -0.708704948425293, -1.80327308177948, 2.1600162982940674, 0.13766424357891083, 0.8274911642074585, 0.5443409085273743, 0.2840886116027832, 0.38756614923477173, 0.13958865404129028, -0.8712242198390497, -0.11462468763839645, 0.4566029623707489,0.13908026160341,0.4197845458984375,1.19549560546875,0.6845855712890625
20220130-1533,2022-01-30 15:33:46Z,u01, 81,40,movements,el-ex, rt, d,70908.55530787501, 2.7834693669029904, -0.9558596579651651, -3.095497431879222, 0.3750515282154083, -1.6200984716415405, 1.9951833486557007, 0.20221568644046783, 0.8168100118637085, 0.540305495262146, 0.1935819536447525, 0.45174455642700195, 0.192238450050354, -0.8716318261098764, -0.10203290299035965, 0.44882325072596874,0.16853742494611723,0.37652587890625,1.1932830810546875,0.768341064453125
20220130-1533,2022-01-30 15:33:46Z,u01, 82,40,movements,el-ex, rt, d,70908.580253875, 2.6794683535929775, -0.9403241315215749, 3.10820586507, -0.03430916741490364, -1.60446035861969, 1.9413070678710938, 0.26284053921699524, 0.8077492117881775, 0.5276890993118286, 0.0765453577041626, 0.07010406255722046, 0.09877574443817139, -0.8694131296390659, -0.08924893952790303, 0.4443374849918796,0.19677287019042997,0.3340301513671875,0.8862152099609375,0.635223388671875
20220130-1533,2022-01-30 15:33:46Z,u01, 83,40,movements,el-ex, rt, d,70908.60519887501, 2.583249005098282, -0.9148494218873371, 3.0414450118337735, -0.30716758966445923, -1.7988569736480713, 1.8943580389022827, 0.3231193423271179, 0.7924707531929016, 0.517285168170929, 0.016922682523727417, 0.06878101825714111, -0.010174572467803955, -0.8674673795128113, -0.07837687568959298, 0.43638299174016076,0.2256707469339981,0.3449249267578125,0.8586578369140625,0.4967803955078125
20220130-1533,2022-01-30 15:33:46Z,u01, 84,40,movements,el-ex, rt, d,70908.630144875, 2.502516786690706, -0.8744913085770136, 2.9967018270020676, -0.9256396293640137, -1.8287557363510132, 1.7265034914016724, 0.38255807757377625, 0.7672173380851746, 0.5148078799247742, 0.10599786043167114, 0.1478981375694275, 0.06644529104232788, -0.8674363441442245, -0.07041403057434864, 0.42155493529212085,0.25473040809210223,0.4803619384765625,0.8983001708984375,0.5794525146484375
20220130-1533,2022-01-30 15:33:46Z,u01, 85,40,movements,el-ex, rt, d,70908.655089875, 2.4363559673366106, -0.8360497302175164, 2.9664350317862787, -0.4488369822502136, -1.666419267654419, 1.4608068466186523, 0.4345622956752777, 0.7420006394386292, 0.510481059551239, 0.1200946569442749, 0.32516855001449585, 0.1507587432861328, -0.8666380614889694, -0.06464510871929399, 0.40712439955473634,0.28108590544000145,0.5573577880859375,1.0506134033203125,0.680206298828125
20220130-1533,2022-01-30 15:33:46Z,u01, 86,40,movements,el-ex, rt, d,70908.680035875, 2.3753547618589446, -0.8063564244185584, 2.936811289334364, -0.28776949644088745, -1.521689772605896, 1.3636165857315063, 0.4799456000328064, 0.7217701077461243, 0.49869900941848755, 0.06752461194992065, 0.20301949977874756, 0.11226308345794678, -0.8636575444257255, -0.05869535216217145, 0.39713888198241576,0.304846534310161,0.546905517578125,0.933258056640625,0.614044189453125
20220130-1533,2022-01-30 15:33:46Z,u01, 87,40,movements,el-ex, rt, d,70908.704980875, 2.3182414338268917, -0.7778510649414904, 2.9095944868826034, -0.2848203480243683, -1.5046104192733765, 1.3523658514022827, 0.5225113034248352, 0.7017500996589661, 0.4842820465564728, 0.04340672492980957, 0.12312489748001099, 0.045732200145721436, -0.8598708573021516, -0.052565498195466936, 0.38803163228552345,0.32755234955884593,0.5688934326171875,0.8083648681640625,0.523529052734375
20220130-1533,2022-01-30 15:33:46Z,u01, 88,40,movements,el-ex, rt, d,70908.729926875, 2.2648725138946455, -0.748397729411225, 2.886410815468216, -0.18354246020317078, -1.5067577362060547, 1.310962200164795, 0.5632480382919312, 0.6804655194282532, 0.46874183416366577, 0.05682343244552612, 0.09829741716384888, 0.06154710054397583, -0.855683893766424, -0.046647457505661905, 0.37854801286734097,0.3497580413144477,0.6149444580078125,0.774261474609375,0.536376953125
20220130-1533,2022-01-30 15:33:46Z,u01, 89,40,movements,el-ex, rt, d,70908.754871875, 2.210421662406416, -0.7225029475473808, 2.8614107048152, -0.005935948342084885, -1.5289061069488525, 1.221888542175293, 0.6018624305725098, 0.6612643599510193, 0.44776254892349243, 0.06792211532592773, 0.129217267036438, 0.040671348571777344, -0.8498521153926651, -0.04040610269848921, 0.37137166040286906,0.3717551370694566,0.67535400390625,0.7877349853515625,0.48370361328125
20220130-1533,2022-01-30 15:33:46Z,u01, 90,40,movements,el-ex, rt, d,70908.77981787501, 2.15894374649676, -0.6964677080520036, 2.8413152466404124, -0.21172356605529785, -1.5719608068466187, 1.189967155456543, 0.638215184211731, 0.6415120363235474, 0.4256103038787842, 0.05631911754608154, 0.06123155355453491, 0.005481243133544922, -0.8435430660686044, -0.03521714361710679, 0.3638209587310117,0.39348355769340293,0.6904144287109375,0.7060546875,0.435791015625
20220130-1533,2022-01-30 15:33:46Z,u01, 91,40,movements,el-ex, rt, d,70908.804762875, 2.111455969075017, -0.6674980340015767, 2.8293361510305144, -0.4156246781349182, -1.6364630460739136, 1.1522841453552246, 0.6733546853065491, 0.6190229654312134, 0.40423277020454407, 0.08490031957626343, 0.01668870449066162, 0.02109086513519287, -0.8373296277645018, -0.03155115083782478, 0.3539877110949663,0.41542309658069704,0.762542724609375,0.6229400634765625,0.44171142578125
20220130-1533,2022-01-30 15:33:46Z,u01, 92,40,movements,el-ex, rt, d,70908.82970887501, 2.068251652961034, -0.6370330645962947, 2.8257753833572448, -0.49144652485847473, -1.6459596157073975, 1.0863546133041382, 0.70643550157547, 0.5948130488395691, 0.3835965692996979, 0.08754026889801025, 0.05241894721984863, 0.034707993268966675, -0.8312111656996208, -0.029770410409810294, 0.3421404679004567,0.437197462433193,0.7929840087890625,0.6454925537109375,0.422088623046875
20220130-1533,2022-01-30 15:33:46Z,u01, 93,40,movements,el-ex, rt, d,70908.85465387501, 2.02521671406725, -0.6094035930939465, 2.8204204479106068, -0.21163305640220642, -1.5591111183166504, 1.049001693725586, 0.7367736101150513, 0.5723785161972046, 0.35992762446403503, 0.075497567653656, 0.09508681297302246, 0.026837021112442017, -0.824141311865669, -0.02747557850843088, 0.33198641813399116,0.45806260591528614,0.8239898681640625,0.6607818603515625,0.3870086669921875
20220130-1533,2022-01-30 15:33:46Z,u01, 94,40,movements,el-ex, rt, d,70908.879599875, 1.9841809856410273, -0.583404545758215, 2.814444230522084, -0.36056771874427795, -1.4797046184539795, 1.0227428674697876, 0.7642917037010193, 0.5508685111999512, 0.3352651000022888, 0.12601310014724731, 0.02708876132965088, 0.08497747778892517, -0.8167168220008532, -0.024620689493971948, 0.3228469091278696,0.4776374638190893,0.889739990234375,0.5803985595703125,0.4217529296875
20220130-1533,2022-01-30 15:33:46Z,u01, 95,40,movements,el-ex, rt, d,70908.90454487501, 1.9473795488353955, -0.5566105740636813, 2.8119731297865402, -0.19315694272518158, -1.3633089065551758, 1.0134434700012207, 0.789555013179779, 0.5283114314079285, 0.31223446130752563, 0.07889902591705322, 0.03385293483734131, 0.04590475559234619, -0.809714070554777, -0.021917048226149122, 0.31280728007251724,0.4960187035175985,0.8640594482421875,0.5621337890625,0.3489990234375
20220130-1533,2022-01-30 15:33:46Z,u01, 96,40,movements,el-ex, rt, d,70908.92948987501, 1.9086356735229353, -0.5333349499909853, 2.8012792831147846, 0.13894730806350708, -1.278624415397644, 0.9984256029129028, 0.8124402761459351, 0.5084079504013062, 0.28541654348373413, 0.07937508821487427, 0.0549008846282959, 0.05528178811073303, -0.8015132554232098, -0.01687512730464366, 0.30634869016857835,0.513266384491913,0.8905181884765625,0.563323974609375,0.338775634765625
20220130-1533,2022-01-30 15:33:46Z,u01, 97,40,movements,el-ex, rt, d,70908.954435875, 1.87043258216026, -0.5111037666181749, 2.7873000672552375, 0.2187245786190033, -1.2081550359725952, 0.9740950465202332, 0.8333431482315063, 0.48914024233818054, 0.2574511468410492, 0.06459081172943115, 0.025843918323516846, 0.07430553436279297, -0.7928525455982722, -0.01050805064288543, 0.3014505038197134,0.5295300382175386,0.8912811279296875,0.5108184814453125,0.333160400390625
20220130-1533,2022-01-30 15:33:46Z,u01, 98,40,movements,el-ex, rt, d,70908.97938087501, 1.83585573531552, -0.48847877055295463, 2.7773415902498995, -0.11964184045791626, -1.1873944997787476, 0.9475798606872559, 0.8522090315818787, 0.4692831039428711, 0.2313290238380432, 0.06020545959472656, -0.026473045349121094, 0.08849522471427917, -0.7846278365953947, -0.004865168327285674, 0.29566951368769256,0.5448990985324051,0.910980224609375,0.449249267578125,0.32379150390625
20220130-1533,2022-01-30 15:33:46Z,u01, 99,40,movements,el-ex, rt, d,70909.004326875, 1.8066138019902722, -0.4635407694931715, 2.777958171178692, -0.2588133215904236, -1.2201876640319824, 0.9342078566551208, 0.8697190880775452, 0.44711804389953613, 0.20898324251174927, 0.05151492357254028, -0.02498367428779602, 0.10872001945972443, -0.7774888771239262, -0.0016321808309072983, 0.28636439954075577,0.5599140297472615,0.91961669921875,0.4295806884765625,0.31365966796875
20220130-1533,2022-01-30 15:33:46Z,u01, 100,40,movements,el-ex, rt, d,70909.029271875, 1.7755046645879962, -0.43939769321780897, 2.7768195887215463, -0.07378839701414108, -1.2072837352752686, 0.9732067584991455, 0.8861116766929626, 0.4253944456577301, 0.18397146463394165, 0.0406460165977478, 0.05315166711807251, 0.08494959771633148, -0.769403401280371, 0.0020341783050975837, 0.27796484614221506,0.5751084686872914,0.9256439208984375,0.480072021484375,0.264373779296875
20220130-1533,2022-01-30 15:33:46Z,u01, 101,40,movements,el-ex, rt, d,70909.054217875, 1.7438216758777598, -0.41490521129528335, 2.774403311290251, -0.16551844775676727, -1.2037041187286377, 0.9604316353797913, 0.9014900326728821, 0.40310317277908325, 0.15755607187747955, 0.054549574851989746, 0.04445245862007141, 0.09264244139194489, -0.7607470106174138, 0.006482303908470516, 0.2699681548612948,0.5902027866587614,0.96661376953125,0.4241485595703125,0.2304840087890625
20220130-1533,2022-01-30 15:33:46Z,u01, 102,40,movements,el-ex, rt, d,70909.0791635, 1.716591758268809, -0.3898484593104779, 2.7801999098416257, -0.46544575691223145, -1.2033783197402954, 0.9394468069076538, 0.9151535034179688, 0.3800482451915741, 0.13437868654727936, 0.0419389009475708, 0.0012842118740081787, 0.10327710211277008, -0.7530676269117973, 0.008859534227593807, 0.2594458722128124,0.6045648067917285,0.9576568603515625,0.382049560546875,0.2488250732421875
20220130-1533,2022-01-30 15:33:46Z,u01, 103,40,movements,el-ex, rt, d,70909.10410950001, 1.6900210103509112, -0.3677822724262563, 2.7896569679688286, -0.6166021227836609, -1.2380316257476807, 0.7376750111579895, 0.9265027642250061, 0.3595468997955322, 0.11098837852478027, 0.01046299934387207, 0.10090228915214539, 0.11450609564781189, -0.7452575207741278, 0.00924219442522392, 0.24889364466102637,0.6185124580976807,0.944305419921875,0.477020263671875,0.2425689697265625
20220130-1533,2022-01-30 15:33:46Z,u01, 104,40,movements,el-ex, rt, d,70909.12905450001, 1.6671644467212723, -0.3492856296283952, 2.8103458219621946, -1.013596773147583, -1.091891884803772, 0.5834019780158997, 0.9352579116821289, 0.34222665429115295, 0.09040909260511398, -0.003037393093109131, 0.06924188137054443, 0.14004456996917725, -0.7383627712168812, 0.004996306396230166, 0.23602174858426941,0.6317351479005187,0.9351043701171875,0.4130706787109375,0.2343597412109375
20220130-1533,2022-01-30 15:33:46Z,u01, 105,40,movements,el-ex, rt, d,70909.1540005, 1.650250391777391, -0.3330758573858714, 2.828661993724164, -0.4255483150482178, -0.7933019399642944, 0.540844202041626, 0.9420597553253174, 0.32695138454437256, 0.07500838488340378, -0.03384143114089966, 0.17315542697906494, 0.13452553749084473, -0.7331445706978725, 0.0017976075998747676, 0.22455274560017616,0.6419282706701455,0.90985107421875,0.528289794921875,0.2106170654296875
20220130-1533,2022-01-30 15:33:46Z,u01, 106,40,movements,el-ex, rt, d,70909.17894550001, 1.6347245226039004, -0.32132266469681203, 2.834034794397998, -0.19293636083602905, -0.6179620623588562, 0.3498428165912628, 0.9468803405761719, 0.3158217966556549, 0.06061495095491409, -0.02903372049331665, 0.1840713620185852, 0.15149760246276855, -0.7282190320162384, 0.00212519265370939, 0.2187407904333631,0.6494959575313821,0.91900634765625,0.502471923828125,0.2097015380859375
20220130-1533,2022-01-30 15:33:46Z,u01, 107,40,movements,el-ex, rt, d,70909.2038915, 1.6241424075306714, -0.3139617161896942, 2.84374847907104, -0.5764949917793274, -0.4751890301704407, 0.1927146464586258, 0.9497644305229187, 0.30882909893989563, 0.05071432888507843, -0.06541091203689575, 0.16759604215621948, 0.21205735206604004, -0.7248152614772527, -1.7026925829638495e-05, 0.21302448559428397,0.6551819071966745,0.88031005859375,0.4779205322265625,0.272064208984375
20220130-1533,2022-01-30 15:33:46Z,u01, 108,40,movements,el-ex, rt, d,70909.2288365, 1.6200605747595997, -0.31073152784524405, 2.8598948919548426, -0.5774596333503723, -0.22105860710144043, -0.0018669497221708298, 0.9509550929069519, 0.30575522780418396, 0.04688602313399315, -0.09820234775543213, 0.23240703344345093, 0.19919264316558838, -0.7234750877203048, -0.005177806175076738, 0.20659595551658755,0.6586920185388574,0.853546142578125,0.536163330078125,0.2471923828125
20220130-1533,2022-01-30 15:33:46Z,u01, 109,40,movements,el-ex, rt, d,70909.25378150001, 1.6219756344266811, -0.3127746754397293, 2.8730903587511945, -0.43546345829963684, 0.07786770164966583, -0.20849862694740295, 0.9502376914024353, 0.30769988894462585, 0.04867501184344292, -0.0983852744102478, 0.27338534593582153, 0.2155005931854248, -0.7240359542226372, -0.010461539975283235, 0.2029654758221513,0.6591415525037309,0.855072021484375,0.5741729736328125,0.260101318359375
20220130-1533,2022-01-30 15:33:46Z,u01, 110,40,movements,el-ex, rt, d,70909.2787275, 1.6297540057506237, -0.3192504385185424, 2.883811154851228, -0.3505786955356598, 0.2954130172729492, -0.37629806995391846, 0.9478213787078857, 0.31385496258735657, 0.05594618618488312, -0.06812161207199097, 0.22468876838684082, 0.26963067054748535, -0.7264459934400511, -0.015789601906021328, 0.20174603641700065,0.6567538066019751,0.8797760009765625,0.5401763916015625,0.323516845703125
20220130-1533,2022-01-30 15:33:46Z,u01, 111,40,movements,el-ex, rt, d,70909.3036725, 1.642845664925232, -0.33106056841760173, 2.8942392864659183, -0.40451937913894653, 0.5244814157485962, -0.6283060312271118, 0.9432446956634521, 0.325046181678772, 0.06807799637317657, -0.04915589094161987, 0.24873006343841553, 0.29038166999816895, -0.7304392743664068, -0.022303909561914553, 0.20259612023350118,0.6518557298003721,0.89111328125,0.5804290771484375,0.3619842529296875
20220130-1533,2022-01-30 15:33:46Z,u01, 112,40,movements,el-ex, rt, d,70909.3286185, 1.6651902226344655, -0.34913927609148665, 2.909217054011736, -0.571071982383728, 0.8914040327072144, -0.9063290953636169, 0.9354845285415649, 0.34208914637565613, 0.08856723457574844, -0.058866918087005615, 0.23331984877586365, 0.3196665048599243, -0.7370766321707808, -0.031648952036183536, 0.20443276183691456,0.6433691191158403,0.8768157958984375,0.5735321044921875,0.4079132080078125
20220130-1533,2022-01-30 15:33:46Z,u01, 113,40,movements,el-ex, rt, d,70909.3535635, 1.697695156777303, -0.37326936070197164, 2.9235115649800574, -0.2200538069009781, 1.298350214958191, -1.1214277744293213, 0.9236530661582947, 0.3646616041660309, 0.11784373223781586, -0.0345081090927124, 0.250282883644104, 0.2666015625, -0.7464503845785495, -0.04163759013944163, 0.2091017766293585,0.6303607507169274,0.8946075439453125,0.620819091796875,0.3820343017578125
20220130-1533,2022-01-30 15:33:46Z,u01, 114,40,movements,el-ex, rt, d,70909.3785095, 1.7363092426669813, -0.4028295571920067, 2.9298315515961044, 0.04117051139473915, 1.5696982145309448, -1.2777539491653442, 0.9073834419250488, 0.392022967338562, 0.15157027542591095, 0.03400760889053345, 0.19537943601608276, 0.23134911060333252, -0.7571862554385511, -0.04953901523097812, 0.2187304854072377,0.6134916085694593,0.9390716552734375,0.5892791748046875,0.3809356689453125
20220130-1533,2022-01-30 15:33:46Z,u01, 115,40,movements,el-ex, rt, d,70909.4034545, 1.7794624577863793, -0.43619971235864724, 2.9359293990227715, -0.0722365751862526, 1.7046669721603394, -1.4379099607467651, 0.8867032527923584, 0.42249807715415955, 0.1877579689025879, 0.06813085079193115, 0.16110491752624512, 0.19474950432777405, -0.768475745689543, -0.057654274811276024, 0.23031400343742348,0.5942025130723031,0.947601318359375,0.57843017578125,0.3897857666015625
20220130-1533,2022-01-30 15:33:46Z,u01, 116,40,movements,el-ex, rt, d,70909.42840050001, 1.8301036665743988, -0.47043056754615414, 2.9504648861075173, -0.2245323359966278, 1.8766460418701172, -1.4775476455688477, 0.8615725636482239, 0.4532701373100281, 0.22855797410011292, 0.07092243432998657, 0.12314581871032715, 0.17575426399707794, -0.7808119394149763, -0.06790950863590259, 0.2404524337080154,0.5726286577416022,0.933258056640625,0.57440185546875,0.4049224853515625
20220130-1533,2022-01-30 15:33:47Z,u01, 117,40,movements,el-ex, rt, d,70909.4533455, 1.8856724373107927, -0.5057270527509354, 2.9629616556137153, 0.2529437839984894, 2.099287271499634, -1.488154649734497, 0.8318117260932922, 0.4844436049461365, 0.2709313929080963, 0.10227030515670776, 0.12644201517105103, 0.13275524973869324, -0.793481171158028, -0.0765070337618091, 0.2523798214448988,0.5484877251494708,0.9348602294921875,0.627655029296875,0.4029388427734375
20220130-1533,2022-01-30 15:33:47Z,u01, 118,40,movements,el-ex, rt, d,70909.47829150001, 1.940589618456721, -0.5453346153824069, 2.9638108935748777, 0.658720850944519, 2.24782657623291, -1.5508431196212769, 0.7971607446670532, 0.5187041759490967, 0.3089997470378876, 0.14152944087982178, 0.14210814237594604, 0.12863776087760925, -0.8049432465751348, -0.08103232904822931, 0.26961934393300196,0.522307954899419,0.93896484375,0.6615447998046875,0.433502197265625
20220130-1533,2022-01-30 15:33:47Z,u01, 119,40,movements,el-ex, rt, d,70909.50323650001, 2.000976687797562, -0.586689983289785, 2.9706420958507955, 0.030230745673179626, 2.2771244049072266, -1.7152092456817627, 0.7569039463996887, 0.5536075234413147, 0.3472973108291626, 0.18228989839553833, 0.10317659378051758, 0.17688801884651184, -0.8161633680288627, -0.08675261269609667, 0.2866262719085101,0.4941627868211344,0.9379425048828125,0.65704345703125,0.5411834716796875
20220130-1533,2022-01-30 15:33:47Z,u01, 120,40,movements,el-ex, rt, d,70909.5281825, 2.076785681808615, -0.6213542867850855, 3.0035835065727046, -0.4469471573829651, 2.3129849433898926, -1.755366563796997, 0.7112069129943848, 0.582136869430542, 0.39408326148986816, 0.18605566024780273, 0.09509402513504028, 0.1476191282272339, -0.8290895949028954, -0.09824500873677212, 0.29608782067341943,0.4639940022371378,0.9010772705078125,0.6716156005859375,0.5476531982421875
20220130-1533,2022-01-30 15:33:47Z,u01, 121,40,movements,el-ex, rt, d,70909.55312750001, 2.1551256728750374, -0.6578955576644622, 3.034993560358153, 0.26320165395736694, 2.486577272415161, -1.7899292707443237, 0.6599935293197632, 0.6114529967308044, 0.4365023970603943, 0.16889458894729614, 0.2022220492362976, 0.09184858202934265, -0.8405449892797019, -0.10832971267052738, 0.3080098202573549,0.43229497251715415,0.822174072265625,0.8251953125,0.5324249267578125
20220130-1533,2022-01-30 15:33:47Z,u01, 122,40,movements,el-ex, rt, d,70909.57807250001, 2.231394679498708, -0.7027129821012037, 3.0547027265375193, 0.763375997543335, 2.626683473587036, -1.8646595478057861, 0.602556586265564, 0.6462903022766113, 0.4682250916957855, 0.2185952067375183, 0.16775095462799072, 0.10872513055801392, -0.8491170706908062, -0.11451090751014395, 0.3267733552670897,0.398881864738132,0.8223876953125,0.8109283447265625,0.5753021240234375
20220130-1533,2022-01-30 15:33:47Z,u01, 123,40,movements,el-ex, rt, d,70909.6030185, 2.3145667203295592, -0.7500108735788874, 3.0807242361831, 0.29845619201660156, 2.6159207820892334, -2.0402629375457764, 0.5384600758552551, 0.6816467046737671, 0.49539801478385925, 0.25882697105407715, 0.10421162843704224, 0.163537859916687, -0.8561619885919194, -0.12118437437415006, 0.3466281595320081,0.36352462015394105,0.79327392578125,0.7707061767578125,0.6722869873046875
20220130-1533,2022-01-30 15:33:47Z,u01, 124,40,movements,el-ex, rt, d,70909.62796350001, 2.4157541496532353, -0.7853820342401442, 3.1338897791475233, -0.206024169921875, 2.5642967224121094, -2.1139039993286133, 0.4693589210510254, 0.7070953845977783, 0.5288843512535095, 0.2585616409778595, 0.06646430492401123, 0.11784428358078003, -0.8642218891116987, -0.13252432985848936, 0.35901069219741455,0.32660259027985944,0.7320404052734375,0.769012451171875,0.6537017822265625
20220130-1533,2022-01-30 15:33:47Z,u01, 125,40,movements,el-ex, rt, d,70909.6529095, 2.521994573090837, -0.8192839863298665, -3.0908466259581178, 0.33553701639175415, 2.602482795715332, -2.1210503578186035, 0.3964751958847046, 0.730657160282135, 0.5558304190635681, 0.2540222108364105, 0.15200269222259521, 0.08932644128799438, -0.8702352744387692, -0.14354714794975587, 0.37210401674292215,0.2891770458819333,0.641571044921875,0.9015960693359375,0.6513214111328125
20220130-1533,2022-01-30 15:33:47Z,u01, 126,40,movements,el-ex, rt, d,70909.6778545, 2.63079015358921, -0.8599887208148721, -3.0339049215225704, 0.6874399781227112, 2.7207140922546387, -2.2295658588409424, 0.31896644830703735, 0.7578352093696594, 0.5691633820533752, 0.3074069321155548, 0.1489337682723999, 0.10518383979797363, -0.8725407696929487, -0.15249360597559827, 0.39040024406812845,0.2510103440051564,0.626922607421875,0.9094696044921875,0.6727142333984375
20220130-1533,2022-01-30 15:33:47Z,u01, 127,40,movements,el-ex, rt, d,70909.7028005, 2.756033511771952, -0.8939326994546379, -2.959770882054326, 0.023571711033582687, 2.692884683609009, -2.345181941986084, 0.2355564534664154, 0.779541015625, 0.5803696513175964, 0.3473597764968872, 0.048477113246917725, 0.18438559770584106, -0.8738849011729453, -0.16281895019195844, 0.406788417353181,0.21056673215404287,0.5721435546875,0.8002166748046875,0.7696533203125
20220130-1533,2022-01-30 15:33:47Z,u01, 128,40,movements,el-ex, rt, d,70909.7277455, 2.8938588663254547, -0.9083363929038406, -2.868904650726713, -0.19471213221549988, 2.667196750640869, -2.3041317462921143, 0.15081703662872314, 0.788481593132019, 0.5962812900543213, 0.32727131247520447, 0.05067569017410278, 0.08307069540023804, -0.8760981477657314, -0.17490763902474848, 0.41622252552816225,0.16916942235652999,0.484100341796875,0.8365478515625,0.68243408203125
20220130-1533,2022-01-30 15:33:47Z,u01, 129,40,movements,el-ex, rt, d,70909.7526915, 3.0345159383287195, -0.9155382103573309, -2.7755210180449126, -0.04307758808135986, 2.6935648918151855, -2.290971040725708, 0.06512410938739777, 0.7928906679153442, 0.6058743000030518, 0.34931981563568115, 0.09913825988769531, 0.07277590036392212, -0.8764877972080833, -0.1862962382985545, 0.42520552214476115,0.12752744009962164,0.412261962890625,0.89642333984375,0.660247802734375
20220130-1533,2022-01-30 15:33:47Z,u01, 130,40,movements,el-ex, rt, d,70909.7776365, -3.1064522309333027, -0.9159256021144053, -2.6808163554318782, -0.2811276316642761, 2.666745901107788, -2.3227767944335938, -0.021398121491074562, 0.79312664270401, 0.6086812019348145, 0.33345556259155273, 0.028727173805236816, 0.10918402671813965, -0.8748946905875444, -0.1972304982975727, 0.4339720542585476,0.085602832101579,0.318389892578125,0.8305206298828125,0.7157745361328125
20220130-1533,2022-01-30 15:33:47Z,u01, 131,40,movements,el-ex, rt, d,70909.80258250001, -2.97072149074292, -0.8934177353832206, -2.591620048052601, -0.9551481604576111, 2.5943307876586914, -2.244607448577881, -0.10657362639904022, 0.7792183756828308, 0.6176255345344543, 0.33963629603385925, -0.05343395471572876, 0.11169904470443726, -0.8748331916288579, -0.20851777464527466, 0.43514927662792036,0.042807639919843446,0.218902587890625,0.7300872802734375,0.7073211669921875
20220130-1533,2022-01-30 15:33:47Z,u01, 132,40,movements,el-ex, rt, d,70909.8275275, -2.8467630222373574, -0.8628793886663845, -2.5150460173534994, -0.42958971858024597, 2.628035068511963, -2.1482388973236084, -0.18894843757152557, 0.7597180604934692, 0.6221956014633179, 0.2892138361930847, 0.10986524820327759, -0.012515246868133545, -0.8737108974520668, -0.21846524447734747, 0.4346285990517066,0.0005459749246158746,0.105560302734375,0.866607666015625,0.614501953125
20220130-1533,2022-01-30 15:33:47Z,u01, 133,40,movements,el-ex, rt, d,70909.8524725, -2.724734766186912, -0.8414912581249616, -2.4412059848880956, 0.07981214672327042, 2.6932244300842285, -2.1005468368530273, -0.26979878544807434, 0.7456376552581787, 0.6092891693115234, 0.29813429713249207, 0.07823014259338379, -0.030355453491210938, -0.8678239743993165, -0.22699371917331235, 0.4401476509852079,-0.04031767198456751,0.018890380859375,0.815216064453125,0.582275390625
20220130-1533,2022-01-30 15:33:47Z,u01, 134,40,movements,el-ex, rt, d,70909.87741850001, -2.606097602931393, -0.8200921954210336, -2.3703038503541842, 0.04314763844013214, 2.615905523300171, -2.0913190841674805, -0.3480803966522217, 0.7312087416648865, 0.5866631269454956, 0.2948271930217743, -0.0020218491554260254, 0.015051960945129395, -0.8591419998587703, -0.2349608233764262, 0.4474783385465344,-0.08019665685593895,-0.0493927001953125,0.7330780029296875,0.60479736328125
20220130-1533,2022-01-30 15:33:47Z,u01, 135,40,movements,el-ex, rt, d,70909.9023635, -2.499577359524431, -0.7889286053562651, -2.3106016849622377, -0.1975347101688385, 2.45878267288208, -2.0389206409454346, -0.4219256639480591, 0.7095987796783447, 0.5643123984336853, 0.3008165955543518, -0.037403404712677, 0.05360764265060425, -0.8504523148381848, -0.24266657868492983, 0.4512315870586809,-0.11930593623536577,-0.1315765380859375,0.6593017578125,0.588958740234375
20220130-1533,2022-01-30 15:33:47Z,u01, 136,40,movements,el-ex, rt, d,70909.92730950001, -2.4022734733478517, -0.7566896212694759, -2.258036459821408, 0.20480604469776154, 2.415679693222046, -1.9728877544403076, -0.4899178147315979, 0.6865181922912598, 0.537283718585968, 0.27775946259498596, 0.01700359582901001, -0.11160904169082642, -0.840373715504847, -0.2498277102964386, 0.4549107444311429,-0.15625142618306326,-0.2077789306640625,0.70257568359375,0.4225921630859375
20220130-1533,2022-01-30 15:33:47Z,u01, 137,40,movements,el-ex, rt, d,70909.9522545, -2.308105664404836, -0.726198623166198, -2.2059058339165434, 0.2560853660106659, 2.3298964500427246, -1.938897967338562, -0.5535105466842651, 0.6640321612358093, 0.5026803612709045, 0.29911595582962036, -0.018478572368621826, -0.04708343744277954, -0.8277735451798907, -0.2571597738681179, 0.46051634859468477,-0.1912709065383834,-0.2601776123046875,0.626312255859375,0.4429779052734375
20220130-1533,2022-01-30 15:33:47Z,u01, 138,40,movements,el-ex, rt, d,70909.9772005, -2.218975195654957, -0.6959619266183203, -2.1560598788120156, 0.4718833267688751, 2.207712173461914, -1.8449219465255737, -0.6117896437644958, 0.6411239504814148, 0.46332958340644836, 0.288440465927124, -0.01990795135498047, -0.058300018310546875, -0.8134529289979767, -0.26449786575520495, 0.466976970600119,-0.22420523930852243,-0.3187255859375,0.6221160888671875,0.40142822265625
20220130-1533,2022-01-30 15:33:47Z,u01, 139,40,movements,el-ex, rt, d,70910.00214550001, -2.1389844429280456, -0.6635853569454309, -2.112883588150551, 0.04692237079143524, 2.0412955284118652, -1.8647794723510742, -0.6640095114707947, 0.6159452795982361, 0.42391377687454224, 0.2860797643661499, -0.019097864627838135, 0.06133100390434265, -0.7988603646298293, -0.27162292140573024, 0.47222978200363197,-0.25503370934799025,-0.3814849853515625,0.6151123046875,0.4925994873046875
20220130-1533,2022-01-30 15:33:47Z,u01, 140,40,movements,el-ex, rt, d,70910.0270915, -2.0774217971607882, -0.6166927039610934, -2.094072074206646, -0.7208044528961182, 2.0062167644500732, -1.9513341188430786, -0.7133209705352783, 0.5783402323722839, 0.39584797620773315, 0.2691834568977356, 0.05909550189971924, 0.1342577338218689, -0.7880389063480449, -0.277342160194462, 0.46823766578573695,-0.2878010780827069,-0.4396209716796875,0.6374359130859375,0.5400543212890625
20220130-1533,2022-01-30 15:33:47Z,u01, 141,40,movements,el-ex, rt, d,70910.0520365, -2.0141859322733184, -0.5717241233350896, -2.0733431770015773, 0.3665064573287964, 2.170961856842041, -1.9062542915344238, -0.7596501111984253, 0.5410827994346619, 0.36077913641929626, 0.23219937086105347, 0.16811519861221313, 0.044631749391555786, -0.7747263266253985, -0.2831760589952258, 0.4661342858323767,-0.3198897172315618,-0.54254150390625,0.7386016845703125,0.44549560546875
20220130-1533,2022-01-30 15:33:47Z,u01, 142,40,movements,el-ex, rt, d,70910.0769825, -1.9399976543014752, -0.5317415206206482, -2.0377981491754147, 0.2720422148704529, 2.26845121383667, -2.0103957653045654, -0.8038455843925476, 0.5070351958274841, 0.31104373931884766, 0.2713746428489685, 0.16677772998809814, 0.2622901499271393, -0.7556115547626706, -0.29081445254742855, 0.47053468672095033,-0.35082115156704347,-0.53570556640625,0.683258056640625,0.5801544189453125
20220130-1533,2022-01-30 15:33:47Z,u01, 143,40,movements,el-ex, rt, d,70910.101927625, -1.8765447157322626, -0.47888294008939813, -2.02609547331338, -0.7804765105247498, 2.3279666900634766, -2.1914761066436768, -0.8463494181632996, 0.4607880711555481, 0.2671467959880829, 0.30461645126342773, 0.1165282130241394, 0.27371636033058167, -0.7389906080363914, -0.29574698708482566, 0.4662627432664878,-0.38603861595353145,-0.548919677734375,0.554290771484375,0.4897918701171875
20220130-1533,2022-01-30 15:33:47Z,u01, 144,40,movements,el-ex, rt, d,70910.126873625, -1.815182422740601, -0.42466679588104456, -2.021020969928915, 0.2684241533279419, 2.430990219116211, -2.018649101257324, -0.8841014504432678, 0.41201719641685486, 0.22046881914138794, 0.2640300393104553, 0.03956657648086548, -0.20534731447696686, -0.7214938574546961, -0.2994678997296847, 0.46050163692828794,-0.42154936807809396,-0.6186065673828125,0.455047607421875,0.030609130859375
20220130-1533,2022-01-30 15:33:47Z,u01, 145,40,movements,el-ex, rt, d,70910.151818625, -1.740356458272753, -0.38464967416696383, -1.9829259457629098, 1.5250985622406006, 2.2953498363494873, -1.6928553581237793, -0.9136370420455933, 0.3752344250679016, 0.1564183384180069, 0.3046587109565735, -0.095998615026474, -0.3082585334777832, -0.6953758722329269, -0.30767119578104807, 0.4687133955202979,-0.4495538483815624,-0.605865478515625,0.2322845458984375,-0.15533447265625
20220130-1533,2022-01-30 15:33:47Z,u01, 146,40,movements,el-ex, rt, d,70910.17676462501, -1.6761093166438719, -0.353234834531996, -1.9437910455104241, 0.6796758770942688, 1.6698529720306396, -1.1971262693405151, -0.9330605268478394, 0.3459347188472748, 0.09862828254699707, 0.3828437328338623, -0.5504025220870972, -0.38642418384552, -0.6706721291419614, -0.31545687203059775, 0.47909664881617486,-0.47026842966401,-0.5510406494140625,-0.183624267578125,-0.2861785888671875
20220130-1533,2022-01-30 15:33:47Z,u01, 147,40,movements,el-ex, rt, d,70910.201709625, -1.6488550165317333, -0.32887706358158986, -1.9509339936598518, -1.4042400121688843, 0.6819860339164734, -0.678632378578186, -0.9435238838195801, 0.32298049330711365, 0.07380019128322601, 0.4132503867149353, -0.727857232093811, -0.40212345123291016, -0.661987017262565, -0.31412304153374493, 0.47512701623053605,-0.4871902299586515,-0.5325927734375,-0.4034576416015625,-0.3469696044921875
20220130-1533,2022-01-30 15:33:47Z,u01, 148,40,movements,el-ex, rt, d,70910.226654625, -1.6550560844720936, -0.31454241931256016, -1.9936657728319302, -1.3800153732299805, -0.08472873270511627, -0.16002622246742249, -0.9475642442703247, 0.309381365776062, 0.08003102242946625, 0.30788540840148926, -0.35993385314941406, -0.5384964942932129, -0.668195717990747, -0.30582673944453176, 0.4597254964943399,-0.4986350183504567,-0.634063720703125,-0.06768798828125,-0.4523773193359375
20220130-1533,2022-01-30 15:33:47Z,u01, 149,40,movements,el-ex, rt, d,70910.25160062501, -1.6647766664530277, -0.3172084569296148, -2.00172178223968, 0.8145157098770142, -0.4256722033023834, 0.41813114285469055, -0.9459171891212463, 0.3119155168533325, 0.08916027098894119, 0.22753334045410156, -0.1892349123954773, -0.6089966297149658, -0.6721943010240887, -0.3045241484248397, 0.4569781574302043,-0.4965792055523073,-0.7250213623046875,0.1412811279296875,-0.4974365234375
20220130-1533,2022-01-30 15:33:47Z,u01, 150,40,movements,el-ex, rt, d,70910.276545625, -1.6691274834661107, -0.33598844635360714, -1.9700047175392357, 1.2401043176651, -0.7353986501693726, 0.7940778136253357, -0.9395244717597961, 0.3297024965286255, 0.09268344193696976, 0.23009753227233887, -0.33434122800827026, -0.2800765037536621, -0.6708404768754587, -0.3103462184674317, 0.4692627707652828,-0.48316750125136,-0.7104339599609375,0.003753662109375,-0.202178955078125
20220130-1533,2022-01-30 15:33:47Z,u01, 151,40,movements,el-ex, rt, d,70910.30149162501, -1.6879790787545639, -0.36025119806706785, -1.9575620970085839, -0.17983204126358032, -1.114804983139038, 1.0230681896209717, -0.9293906092643738, 0.3525093197822571, 0.10940980166196823, 0.23461204767227173, -0.4031074643135071, -0.11616945266723633, -0.6765211633031135, -0.3114867844972623, 0.4759043013064624,-0.46777160373043397,-0.697998046875,-0.0469512939453125,0.0106658935546875
20220130-1533,2022-01-30 15:33:47Z,u01, 152,40,movements,el-ex, rt, d,70910.32643662501, -1.727923551945825, -0.3855147333087981, -1.9769739403961084, -0.6977370977401733, -1.5048755407333374, 1.2162688970565796, -0.9151901602745056, 0.376036137342453, 0.1449965387582779, 0.20255887508392334, -0.2671341896057129, -0.18622565269470215, -0.6917568760313537, -0.3065463926623633, 0.47220565077836013,-0.45224291867782934,-0.7127227783203125,0.09991455078125,-0.0361785888671875
20220130-1533,2022-01-30 15:33:47Z,u01, 153,40,movements,el-ex, rt, d,70910.351382625, -1.7754536546664266, -0.41729052676326034, -1.992812395330875, 0.06415372341871262, -1.7571511268615723, 1.5030980110168457, -0.8951119184494019, 0.40528497099876404, 0.18579243123531342, 0.20666581392288208, -0.1865808069705963, -0.3254256248474121, -0.7080784493521445, -0.3025245846784959, 0.47037482567013944,-0.43110477338654024,-0.6841278076171875,0.239532470703125,-0.131622314453125
20220130-1533,2022-01-30 15:33:47Z,u01, 154,40,movements,el-ex, rt, d,70910.37632762501, -1.8202970338204496, -0.46004850538946807, -1.9905607396339404, 0.759948194026947, -1.8958181142807007, 1.7843564748764038, -0.8682863116264343, 0.4439915716648102, 0.22124814987182617, 0.232086181640625, -0.17629137635231018, -0.24863764643669128, -0.7211006466991238, -0.3010613474728034, 0.47620956358677374,-0.40323754735198786,-0.63824462890625,0.267822265625,-0.036285400390625
20220130-1533,2022-01-30 15:33:47Z,u01, 155,40,movements,el-ex, rt, d,70910.401273625, -1.8674625743919253, -0.5100161597416515, -1.9877153424423806, 0.2908070385456085, -2.0280117988586426, 1.977513313293457, -0.8346126079559326, 0.4881913363933563, 0.25513043999671936, 0.24347174167633057, -0.24698039889335632, -0.10455626249313354, -0.7337905316427046, -0.29852415391147646, 0.4839195996255651,-0.3718290254061486,-0.5814971923828125,0.239471435546875,0.1936798095703125
20220130-1533,2022-01-30 15:33:47Z,u01, 156,40,movements,el-ex, rt, d,70910.426218625, -1.9385955179157979, -0.5521114736447531, -2.021498003851196, -1.5059218406677246, -2.329629898071289, 2.014925241470337, -0.794477105140686, 0.5244861245155334, 0.3061385750770569, 0.27081048488616943, -0.16697269678115845, 0.10140851140022278, -0.7540186040526061, -0.29073223277609217, 0.47962170295884143,-0.3418974677812369,-0.526641845703125,0.3551788330078125,0.410064697265625
20220130-1533,2022-01-30 15:33:48Z,u01, 157,40,movements,el-ex, rt, d,70910.451164625, -2.039053384779325, -0.5817576147777921, -2.095448947851519, -1.4453941583633423, -2.449150323867798, 2.1855037212371826, -0.7455620169639587, 0.5494932532310486, 0.3770867586135864, 0.26016467809677124, -0.11353451013565063, -0.10558706521987915, -0.7819954102224486, -0.27753659336963943, 0.46229618981411563,-0.31263215855563564,-0.47900390625,0.47174072265625,0.2242584228515625
20220130-1533,2022-01-30 15:33:48Z,u01, 158,40,movements,el-ex, rt, d,70910.476109625, -2.116770487994293, -0.6324474003462397, -2.127614770460441, 1.634521722793579, -2.2897660732269287, 2.3549137115478516, -0.689323902130127, 0.5911205410957336, 0.4188191890716553, 0.20932793617248535, 0.05553174018859863, -0.2591358721256256, -0.7981820382819399, -0.2689145475997082, 0.4631957614844883,-0.27575398397379564,-0.4794464111328125,0.6368560791015625,0.1532745361328125
20220130-1533,2022-01-30 15:33:48Z,u01, 159,40,movements,el-ex, rt, d,70910.501054625, -2.1662510145319955, -0.7094013331153876, -2.1222324028379305, 1.209458351135254, -2.064697742462158, 2.5121076107025146, -0.6281657814979553, 0.6513796448707581, 0.4255727529525757, 0.21691089868545532, -0.10859417915344238, 0.011698395013809204, -0.802540244845349, -0.2621364647488628, 0.48220867664738903,-0.2338554669722866,-0.388946533203125,0.4954833984375,0.50152587890625
20220130-1533,2022-01-30 15:33:48Z,u01, 160,40,movements,el-ex, rt, d,70910.526000625, -2.271069127968169, -0.7504637201884016, -2.191751115868974, -2.3617868423461914, -2.6327686309814453, 2.662829875946045, -0.5592564940452576, 0.6819779872894287, 0.4713160991668701, 0.38474154472351074, -0.3197646737098694, 0.16647100448608398, -0.8209611651161898, -0.24835623172611362, 0.4749300800811903,-0.1969355016416719,-0.1816558837890625,0.3550567626953125,0.64544677734375
20220130-1533,2022-01-30 15:33:48Z,u01, 161,40,movements,el-ex, rt, d,70910.550945625, -2.4162505462798554, -0.762467685627683, -2.3036307310982065, -0.772366464138031, -2.71616530418396, 2.617785930633545, -0.47972074151039124, 0.6907080411911011, 0.5411010980606079, 0.26965296268463135, 0.06248098611831665, -0.15525203943252563, -0.8464661622072943, -0.2324770629842114, 0.4517452058332285,-0.1592975394761073,-0.229034423828125,0.83245849609375,0.3369598388671875
20220130-1533,2022-01-30 15:33:48Z,u01, 162,40,movements,el-ex, rt, d,70910.575891625, -2.514833561593748, -0.8229289791045048, -2.3539851631481428, 2.403870105743408, -2.3572986125946045, 2.6769540309906006, -0.39888086915016174, 0.7331408858299255, 0.5508167147636414, 0.1733558475971222, 0.23637211322784424, -0.31119245290756226, -0.8524687771390662, -0.22069288265486317, 0.4597641273079745,-0.11492945271831809,-0.234954833984375,0.986328125,0.2327117919921875
20220130-1533,2022-01-30 15:33:48Z,u01, 163,40,movements,el-ex, rt, d,70910.600836625, -2.607963996854918, -0.8971465797992457, -2.4004359377817273, 0.20809118449687958, -2.357527494430542, 2.5735108852386475, -0.31732451915740967, 0.7815499901771545, 0.537108302116394, 0.23405718803405762, -0.06897968053817749, 0.13942092657089233, -0.8515916411693204, -0.2081965815655532, 0.47597644691636154,-0.06994619769039301,-0.051544189453125,0.6680450439453125,0.76275634765625
20220130-1533,2022-01-30 15:33:48Z,u01, 164,40,movements,el-ex, rt, d,70910.62578262501, -2.768916004270624, -0.880806583746552, -2.522734119472226, -3.1049907207489014, -2.8315086364746094, 2.339555501937866, -0.2317665070295334, 0.7712525725364685, 0.592835545539856, 0.36555546522140503, -0.043469250202178955, 0.3968343138694763, -0.8707537561842329, -0.19546273671266406, 0.45006074641947286,-0.03205630708642712,0.1343841552734375,0.6954803466796875,1.005096435546875
20220130-1533,2022-01-30 15:33:48Z,u01, 165,40,movements,el-ex, rt, d,70910.650727625, -2.9143983127902806, -0.8497871011380742, -2.624659888129566, -0.3656558394432068, -2.494277238845825, 2.0127217769622803, -0.14869387447834015, 0.7511398792266846, 0.6431790590286255, 0.19041132926940918, 0.5365188121795654, 0.009668350219726562, -0.8870855390337888, -0.18619549782785488, 0.4223590002157091,0.0048410292709736985,0.0229034423828125,1.352386474609375,0.596221923828125
20220130-1533,2022-01-30 15:33:48Z,u01, 166,40,movements,el-ex, rt, d,70910.67567362501, -3.0270945803769855, -0.8866158394653266, -2.69665999278306, 1.9451245069503784, -2.1942591667175293, 2.2353897094726562, -0.0722091943025589, 0.7749372720718384, 0.627900242805481, 0.14925074577331543, 0.16498911380767822, -0.18458634614944458, -0.8850477387074388, -0.17504465247520018, 0.4290780765401432,0.04406906344479243,0.0699310302734375,0.9683074951171875,0.4392547607421875
20220130-1533,2022-01-30 15:33:48Z,u01, 167,40,movements,el-ex, rt, d,70910.70061862501, 3.1285273893409955, -0.9231539798122033, -2.788614703637087, 0.03461024910211563, -2.288750410079956, 2.3766164779663086, 0.007882156409323215, 0.7975084185600281, 0.6032566428184509, 0.162314310669899, -0.2110062837600708, 0.1801145076751709, -0.8809135465491169, -0.16006142059497314, 0.43740615018736284,0.08395026755676516,0.1786651611328125,0.5541534423828125,0.91552734375
20220130-1533,2022-01-30 15:33:48Z,u01, 168,40,movements,el-ex, rt, d,70910.725564625, 3.0004212146604483, -0.8780137245666321, -2.8749710072619314, -2.5420219898223877, -2.492389678955078, 2.1498751640319824, 0.08986430615186691, 0.7694718241691589, 0.632327139377594, 0.3218787908554077, -0.053849875926971436, 0.3372774124145508, -0.890924438476538, -0.14972374903607133, 0.41173512802004897,0.11962706797787888,0.400787353515625,0.678680419921875,0.9886016845703125
20220130-1533,2022-01-30 15:33:48Z,u01, 169,40,movements,el-ex, rt, d,70910.75050962501, 2.89455672184573, -0.8262668130734129, -2.9359502997131197, -0.3906618356704712, -2.266578197479248, 1.8286761045455933, 0.1657005250453949, 0.7354068160057068, 0.6570542454719543, 0.2833045423030853, 0.5507565140724182, -0.01145482063293457, -0.8990124202960003, -0.1424914161227266, 0.3847363076226971,0.15313680097130047,0.4402313232421875,1.3329620361328125,0.59674072265625
20220130-1533,2022-01-30 15:33:48Z,u01, 170,40,movements,el-ex, rt, d,70910.775454625, 2.7857517872835724, -0.8353356325774326, -3.0129356653661366, 1.701231837272644, -1.9164204597473145, 1.956563115119934, 0.23373742401599884, 0.7415217161178589, 0.6288980841636658, 0.14118626713752747, 0.2764989733695984, -0.06346815824508667, -0.8931327514621257, -0.12947176041908498, 0.3880015304030159,0.18709867722520349,0.3770294189453125,1.0474090576171875,0.547698974609375
20220130-1533,2022-01-30 15:33:48Z,u01, 171,40,movements,el-ex, rt, d,70910.800400625, 2.669348606722722, -0.8475417085703564, -3.101310442528606, 0.5043915510177612, -2.1026389598846436, 2.0151827335357666, 0.3010563850402832, 0.7496557235717773, 0.5893911123275757, 0.09732005000114441, -0.11904036998748779, 0.19610100984573364, -0.8841347602509718, -0.11402321709903525, 0.39541509605298547,0.22124986815619546,0.417205810546875,0.6036529541015625,0.8040771484375
20220130-1533,2022-01-30 15:33:48Z,u01, 172,40,movements,el-ex, rt, d,70910.82534562501, 2.575563512887599, -0.811049282058213, 3.1290619262514787, -1.0878629684448242, -2.2463009357452393, 1.8788025379180908, 0.36935994029045105, 0.7250102758407593, 0.5813208818435669, 0.19152262806892395, -0.05194497108459473, 0.11466330289840698, -0.8830130333808459, -0.10463469551332506, 0.38040706877153,0.2542247299658054,0.555267333984375,0.6487579345703125,0.7098388671875
20220130-1533,2022-01-30 15:33:48Z,u01, 173,40,movements,el-ex, rt, d,70910.850291625, 2.490748455973628, -0.7730394386870585, 3.0873336201309396, 0.06463935226202011, -2.1377384662628174, 1.778131127357483, 0.4336683452129364, 0.6983140707015991, 0.5694643259048462, 0.1645525097846985, 0.30637049674987793, -0.054190099239349365, -0.8805607643072133, -0.0966690271503883, 0.3650835914830796,0.28632486612502805,0.5984039306640625,1.027008056640625,0.512908935546875
20220130-1533,2022-01-30 15:33:48Z,u01, 174,40,movements,el-ex, rt, d,70910.875236625, 2.3955371140963013, -0.7555762707002875, 3.0280165810459163, 0.7242302298545837, -2.186039924621582, 1.7834842205047607, 0.4940442442893982, 0.685708224773407, 0.5345320105552673, 0.15796372294425964, 0.12821084260940552, 0.024916231632232666, -0.8717950872777835, -0.08508432885757275, 0.362170118094044,0.31869545015012074,0.647369384765625,0.8207855224609375,0.56353759765625
20220130-1533,2022-01-30 15:33:48Z,u01, 175,40,movements,el-ex, rt, d,70910.900182625, 2.3019009721107575, -0.7333104862512113, 2.9722440069998113, 0.2709944248199463, -2.325359582901001, 1.7802599668502808, 0.5530890226364136, 0.6693328619003296, 0.49607041478157043, 0.16296011209487915, 0.030419886112213135, 0.06508678197860718, -0.8617605927986268, -0.07351116356867277, 0.35836980849510836,0.35147660687088905,0.726104736328125,0.68408203125,0.565216064453125
20220130-1533,2022-01-30 15:33:48Z,u01, 176,40,movements,el-ex, rt, d,70910.925127625, 2.2228871927865823, -0.6966728612951949, 2.94122981978938, -0.7254135608673096, -2.3523881435394287, 1.6554445028305054, 0.6096095442771912, 0.6416693925857544, 0.4654422700405121, 0.1781100630760193, 0.04015427827835083, 0.19146397709846497, -0.8534186380972942, -0.06631561574776307, 0.34609755601470776,0.38405117568652847,0.7825775146484375,0.68048095703125,0.65509033203125
20220130-1533,2022-01-30 15:33:48Z,u01, 177,40,movements,el-ex, rt, d,70910.950073625, 2.16075123192729, -0.6541664163950769, 2.931481835575297, -0.35857605934143066, -2.16843581199646, 1.4151959419250488, 0.6594173908233643, 0.6084979772567749, 0.4414735734462738, 0.15933865308761597, 0.1478649377822876, 0.24627071619033813, -0.8466295553418514, -0.06289022163842348, 0.3286230578748434,0.4138479077595713,0.8160858154296875,0.7834320068359375,0.673187255859375
20220130-1533,2022-01-30 15:33:48Z,u01, 178,40,movements,el-ex, rt, d,70910.975018625, 2.09631222499349, -0.6271088263563993, 2.904722425364257, 0.5844196677207947, -1.8006839752197266, 1.358188509941101, 0.7004671096801758, 0.5868061780929565, 0.4062073826789856, 0.15614598989486694, 0.28242599964141846, 0.15623173117637634, -0.8366744767720548, -0.05549332470603857, 0.32149915205736385,0.43992571777532136,0.8512420654296875,0.883087158203125,0.560302734375
20220130-1533,2022-01-30 15:33:48Z,u01, 179,40,movements,el-ex, rt, d,70910.999964625, 2.0340910645273644, -0.6039600892025601, 2.872626211894704, 0.21772506833076477, -1.689342975616455, 1.2865926027297974, 0.7363266944885254, 0.5679064393043518, 0.36783862113952637, 0.14329659938812256, 0.1198834776878357, 0.2079213559627533, -0.8257076930074868, -0.046109896257386096, 0.3180000600301812,0.4636341832226478,0.8670196533203125,0.66314697265625,0.577850341796875
20220130-1533,2022-01-30 15:33:48Z,u01, 180,40,movements,el-ex, rt, d,70911.024909625, 1.9852476933053564, -0.5753958823641258, 2.8590477630359428, -0.2785997688770294, -1.6333924531936646, 1.1611462831497192, 0.7679468989372253, 0.5441669821739197, 0.3378457725048065, 0.05836218595504761, 0.03990888595581055, 0.22019881010055542, -0.8168761873156991, -0.0404496997562695, 0.30904445563765864,0.4853541121916136,0.8265533447265625,0.583038330078125,0.561798095703125
20220130-1533,2022-01-30 15:33:48Z,u01, 181,40,movements,el-ex, rt, d,70911.04985562501, 1.9435365683648937, -0.5481382956944353, 2.855119561061713, -0.29282456636428833, -1.5196855068206787, 0.984046220779419, 0.7948893308639526, 0.5210991501808167, 0.31081685423851013, 0.035295724868774414, 0.13174819946289062, 0.20796695351600647, -0.8087017627563989, -0.03754837870166389, 0.2987198531636363,0.5053298322993608,0.8366241455078125,0.656494140625,0.506378173828125
20220130-1533,2022-01-30 15:33:48Z,u01, 182,40,movements,el-ex, rt, d,70911.074800625, 1.9071064219867855, -0.5247216714739715, 2.853946862904623, -0.2778541147708893, -1.355482816696167, 0.8079058527946472, 0.8169790506362915, 0.5009721517562866, 0.2856082320213318, 0.02170497179031372, 0.1425824761390686, 0.1758175790309906, -0.800956120927056, -0.03568486643282581, 0.2894372520062417,0.5228976232664458,0.8390350341796875,0.6449737548828125,0.46563720703125
20220130-1533,2022-01-30 15:33:48Z,u01, 183,40,movements,el-ex, rt, d,70911.09974491668, 1.8744753118138318, -0.5052267648299107, 2.850576704191357, 0.024047216400504112, -1.1515263319015503, 0.7370883226394653, 0.8350242972373962, 0.4840058982372284, 0.26167312264442444, -0.03039783239364624, 0.1264219582080841, 0.1824950873851776, -0.793555689108078, -0.03325557717743255, 0.2824157875215615,0.537963552994448,0.813690185546875,0.6019287109375,0.446136474609375
20220130-1533,2022-01-30 15:33:48Z,u01, 184,40,movements,el-ex, rt, d,70911.12469091667, 1.8461893542784096, -0.48741326444695965, 2.848189604310683, -0.3867625892162323, -1.0382851362228394, 0.6175047755241394, 0.8502538204193115, 0.4683419466018677, 0.24025875329971313, 0.0504419207572937, 0.037822574377059937, 0.2699495553970337, -0.7868764622945348, -0.030899967157991898, 0.2759540665609922,0.5511079500413163,0.8979034423828125,0.511016845703125,0.5086669921875
20220130-1533,2022-01-30 15:33:48Z,u01, 185,40,movements,el-ex, rt, d,70911.14963591668, 1.829422112737663, -0.47112807167764026, 2.864642588076833, -0.9831439852714539, -0.8975925445556641, 0.32409870624542236, 0.8614224791526794, 0.4538917541503906, 0.22788985073566437, 0.04055505990982056, 0.09002304077148438, 0.24377477169036865, -0.7827796011154177, -0.03465575329678802, 0.2650432833701426,0.5619672776690404,0.8951873779296875,0.5717315673828125,0.4503326416015625
20220130-1533,2022-01-30 15:33:48Z,u01, 186,40,movements,el-ex, rt, d,70911.17458191667, 1.8194588238694394, -0.45975072785888627, 2.8870772620463394, -0.7255378365516663, -0.6971669793128967, 0.1701347678899765, 0.8685992360115051, 0.44372472167015076, 0.2205527275800705, -0.008293628692626953, 0.17718583345413208, 0.12135107815265656, -0.7801136279438404, -0.041220025491402995, 0.2542717085362399,0.5701486308025786,0.8629150390625,0.6221771240234375,0.3477020263671875
20220130-1533,2022-01-30 15:33:48Z,u01, 187,40,movements,el-ex, rt, d,70911.19952691667, 1.811659484811108, -0.4533461201149383, 2.9007762554468686, -0.4453357458114624, -0.44172579050064087, 0.075792096555233, 0.8730352520942688, 0.43797609210014343, 0.21444517374038696, -0.03863883018493652, 0.15322571992874146, 0.11000263690948486, -0.7779119167657691, -0.04555911830973891, 0.2477939049945222,0.5756524308872144,0.837554931640625,0.5826416015625,0.330352783203125
20220130-1533,2022-01-30 15:33:48Z,u01, 188,40,movements,el-ex, rt, d,70911.22447291667, 1.8089473842363937, -0.45027170427123714, 2.9155178997390965, -0.6421999931335449, -0.3135211169719696, -0.08335401862859726, 0.8749178051948547, 0.4352101683616638, 0.21239322423934937, -0.010797381401062012, 0.1079874038696289, 0.12963268160820007, -0.7769356668848558, -0.0506712796204469, 0.24232823025950334,0.5788612745987983,0.8624114990234375,0.5420379638671875,0.346435546875
20220130-1533,2022-01-30 15:33:48Z,u01, 189,40,movements,el-ex, rt, d,70911.24941791667, 1.808930802059468, -0.4498882877792466, 2.931913034617234, -0.42390310764312744, -0.2698413133621216, -0.14216654002666473, 0.8750833868980408, 0.43486493825912476, 0.21241804957389832, 0.005867421627044678, 0.10467052459716797, 0.021209314465522766, -0.776510723406699, -0.05692206628555241, 0.2374310873767339,0.5808763975979665,0.8818359375,0.531494140625,0.2083892822265625
20220130-1533,2022-01-30 15:33:48Z,u01, 190,40,movements,el-ex, rt, d,70911.27436391667, 1.805274469381346, -0.45140563221330215, 2.9401585411935156, -0.24388399720191956, -0.30054396390914917, -0.15934938192367554, 0.8752114772796631, 0.4362308084964752, 0.20906351506710052, 0.01602381467819214, 0.07251247763633728, -0.006670862436294556, -0.7751181256325151, -0.061021715623490014, 0.2354909325649476,0.5831057043510481,0.890838623046875,0.5101165771484375,0.200164794921875
20220130-1533,2022-01-30 15:33:48Z,u01, 191,40,movements,el-ex, rt, d,70911.29930891667, 1.8036465899526397, -0.4545818366959703, 2.9536975908460494, -0.6425426602363586, -0.31276828050613403, -0.3219991624355316, 0.8741982579231262, 0.4390866458415985, 0.2073177844285965, 0.01273423433303833, 0.03486663103103638, 0.05267694592475891, -0.7740226460095492, -0.06743764984247352, 0.2326720770627699,0.5849828863998114,0.8841705322265625,0.47149658203125,0.2598419189453125
20220130-1533,2022-01-30 15:33:48Z,u01, 192,40,movements,el-ex, rt, d,70911.32425491668, 1.8049458205815976, -0.4596601763335605, 2.972198326480732, -0.477009117603302, -0.2646677494049072, -0.3768087327480316, 0.8717479705810547, 0.44364356994628906, 0.20793335139751434, -0.004590809345245361, 0.03459745645523071, -0.038896411657333374, -0.773426671179906, -0.07601225088291882, 0.229203252418357,0.5860881856197264,0.866424560546875,0.4792022705078125,0.1709747314453125
20220130-1533,2022-01-30 15:33:48Z,u01, 193,40,movements,el-ex, rt, d,70911.34919991667, 1.8057350495454025, -0.46633288314241816, 2.988661421494656, -0.626825213432312, -0.2641925811767578, -0.44350433349609375, 0.868685245513916, 0.4496137499809265, 0.20792755484580994, -0.00047522783279418945, -0.0023785531520843506, -0.020412057638168335, -0.7725611497038807, -0.0843388724336333, 0.22690946434039094,0.5869825283711485,0.8678741455078125,0.4360198974609375,0.192535400390625
20220130-1533,2022-01-30 15:33:48Z,u01, 194,40,movements,el-ex, rt, d,70911.37414491667, 1.8110080084916853, -0.47315867795606675, 3.0146170945085298, -0.9855492115020752, -0.24160289764404297, -0.5133034586906433, 0.8645756244659424, 0.45570018887519836, 0.21177008748054504, 0.013476192951202393, -0.020092278718948364, -0.0015802383422851562, -0.77246048574507, -0.09586364732510227, 0.22209578175891737,0.5871869615839552,0.8767242431640625,0.4334564208984375,0.2127532958984375
20220130-1533,2022-01-30 15:33:48Z,u01, 195,40,movements,el-ex, rt, d,70911.39909091668, 1.8180427415286693, -0.4798829166827094, 3.042652840017959, -0.7988497614860535, -0.23172450065612793, -0.47652795910835266, 0.8600738048553467, 0.4616753160953522, 0.21709196269512177, 0.027117908000946045, 0.003763526678085327, -0.05017592012882233, -0.7725861964648347, -0.10796552272601957, 0.2167672340267929,0.5869122436440671,0.8881683349609375,0.464630126953125,0.16058349609375
20220130-1533,2022-01-30 15:33:48Z,u01, 196,40,movements,el-ex, rt, d,70911.42403591667, 1.8232602555515771, -0.48592775789440334, 3.067011921467082, -0.8210825324058533, -0.24217800796031952, -0.43765971064567566, 0.8562115430831909, 0.4670289158821106, 0.2208753079175949, 0.007573246955871582, -0.04603889584541321, -0.03290213644504547, -0.7722453300146582, -0.11863728131563019, 0.2122102843679802,0.5869660832797672,0.8671722412109375,0.421417236328125,0.18621826171875
20220130-1533,2022-01-30 15:33:49Z,u01, 197,40,movements,el-ex, rt, d,70911.44898191668, 1.8307014669795765, -0.4906188073485846, 3.095768865891403, -1.033606767654419, -0.23343724012374878, -0.44322970509529114, 0.8524175882339478, 0.4711717963218689, 0.2266748696565628, -0.023254990577697754, -0.03509083390235901, 0.00036072731018066406, -0.7722318281169472, -0.13036654424633062, 0.20602616443367802,0.5866991020194727,0.8226776123046875,0.446044921875,0.2318878173828125
20220130-1533,2022-01-30 15:33:49Z,u01, 198,40,movements,el-ex, rt, d,70911.47392691667, 1.8397050977821634, -0.4941979024589208, 3.1266173462682616, -0.9345656633377075, -0.19685499370098114, -0.39324724674224854, 0.8487110733985901, 0.47432568669319153, 0.23389092087745667, -0.07951545715332031, -0.02133798599243164, -0.03528237342834473, -0.7724375593458805, -0.14242779575525671, 0.198969712055978,0.5860594815294594,0.77032470703125,0.45391845703125,0.1995849609375
20220130-1533,2022-01-30 15:33:49Z,u01, 199,40,movements,el-ex, rt, d,70911.49887291667, 1.8465113316598163, -0.49692702636389635, -3.1312006384001, -0.7883495092391968, -0.24649958312511444, -0.29981616139411926, 0.8458506464958191, 0.4767265021800995, 0.2393086552619934, -0.06435644626617432, -0.0466727614402771, -0.031071901321411133, -0.7722962881796616, -0.15235736768485775, 0.19309356452888615,0.5857137318805048,0.7911376953125,0.4208831787109375,0.219329833984375
20220130-1533,2022-01-30 15:33:49Z,u01, 200,40,movements,el-ex, rt, d,70911.52381791668, 1.8522469408610611, -0.49723856143819717, -3.1039485275884022, -1.0315945148468018, -0.3068084120750427, -0.24648840725421906, 0.844321608543396, 0.47700032591819763, 0.2441149353981018, -0.05913466215133667, -0.08797743916511536, -0.0028122365474700928, -0.7718002463858055, -0.16242490854526812, 0.18568228726300617,0.5860586747584011,0.7888641357421875,0.3886566162109375,0.2436370849609375
20220130-1533,2022-01-30 15:33:49Z,u01, 201,40,movements,el-ex, rt, d,70911.54876391667, 1.8574344557933342, -0.49558134854412095, -3.0770536248433964, -0.7613445520401001, -0.284616082906723, -0.14288219809532166, 0.843800961971283, 0.47554314136505127, 0.24871471524238586, -0.07382714748382568, -0.05565178394317627, -0.043834805488586426, -0.7712486238276387, -0.17185144193700175, 0.17758546316189408,0.5866056434407733,0.7742919921875,0.4215087890625,0.1990509033203125
20220130-1533,2022-01-30 15:33:49Z,u01, 202,40,movements,el-ex, rt, d,70911.57370891667, 1.8596135915335994, -0.4928097825141019, -3.0588316892920737, -0.578622043132782, -0.2472870796918869, -0.0231025293469429, 0.8445169925689697, 0.47310319542884827, 0.25092726945877075, 0.09006857872009277, -0.048908889293670654, 0.0039251744747161865, -0.7705959907728415, -0.17789167375513434, 0.1713440044335868,0.5875181801645977,0.920989990234375,0.422119140625,0.2506256103515625
20220130-1533,2022-01-30 15:33:49Z,u01, 203,40,movements,el-ex, rt, d,70911.59865391668, 1.8588188901753055, -0.4893212468247775, -3.0417417657301065, -0.7192111611366272, -0.46491527557373047, -0.09041179716587067, 0.8462936282157898, 0.4700268805027008, 0.25072339177131653, 0.24742603302001953, 0.0028888285160064697, 0.0490509569644928, -0.7692035539044193, -0.18354180392074118, 0.16487745671778728,0.5894522055015262,1.0826263427734375,0.4715423583984375,0.29681396484375
20220130-1533,2022-01-30 15:33:49Z,u01, 204,40,movements,el-ex, rt, d,70911.62359991667, 1.8600840913153283, -0.4875316391081662, -3.0169679846017448, -0.9253475666046143, -0.33387356996536255, -0.2819574773311615, 0.84678053855896, 0.4684465527534485, 0.2520334720611572, -0.01987624168395996, -0.0811326801776886, 0.025417327880859375, -0.7674505091478181, -0.1924485711111913, 0.15698288501573276,0.5910497266010952,0.8307647705078125,0.389495849609375,0.2803955078125
20220130-1533,2022-01-30 15:33:49Z,u01, 205,40,movements,el-ex, rt, d,70911.64854491666, 1.8655476419928048, -0.48880887959795627, -2.989724377941435, -0.9045987129211426, -0.2893684208393097, -0.35270777344703674, 0.8448177576065063, 0.46957460045814514, 0.2564820945262909, 0.05024760961532593, -0.07563844323158264, -0.00927424430847168, -0.766223730737494, -0.2028355162623639, 0.1499743982748301,0.5909879797958683,0.92022705078125,0.393218994140625,0.2477874755859375
20220130-1533,2022-01-30 15:33:49Z,u01, 206,40,movements,el-ex, rt, d,70911.67349091667, 1.8710631120514372, -0.4901234074065347, -2.961208718300958, -0.975710391998291, -0.3416135609149933, -0.343995600938797, 0.8427996635437012, 0.47073477506637573, 0.2609548568725586, 0.14117848873138428, -0.06903195381164551, -0.0022876858711242676, -0.7647248008521554, -0.21371338120448674, 0.1426418976332143,0.5909110043836172,0.98406982421875,0.4001922607421875,0.257537841796875
20220130-1533,2022-01-30 15:33:49Z,u01, 207,40,movements,el-ex, rt, d,70911.69843591667, 1.8756751112716095, -0.49117785821572296, -2.9293601476464217, -1.1980035305023193, -0.468180775642395, -0.3814670145511627, 0.8411133885383606, 0.47166481614112854, 0.26468998193740845, 0.12580561637878418, -0.03457680344581604, -0.02198350429534912, -0.762455740924085, -0.22584558507520305, 0.13415288679200363,0.5913189469585138,0.9597320556640625,0.4362030029296875,0.2444000244140625
20220130-1533,2022-01-30 15:33:49Z,u01, 208,40,movements,el-ex, rt, d,70911.72338191667, 1.881163496009324, -0.4908950416911756, -2.8899775564857264, -1.3852136135101318, -0.5560659766197205, -0.4225654900074005, 0.839775025844574, 0.4714154303073883, 0.2693430483341217, 0.0420609712600708, -0.025492578744888306, -0.043848514556884766, -0.7595254855588622, -0.24040083895492298, 0.12303168222506802,0.5917700394167111,0.8851165771484375,0.4436798095703125,0.2299957275390625
20220130-1533,2022-01-30 15:33:49Z,u01, 209,40,movements,el-ex, rt, d,70911.74832691667, 1.8841100463853893, -0.4912622226608982, -2.852926887273817, -1.084247350692749, -0.6479465961456299, -0.4153294265270233, 0.8388127684593201, 0.4717392027378082, 0.271762877702713, 0.034600138664245605, 0.009751766920089722, -0.05162423849105835, -0.7557653396487607, -0.25436232442227646, 0.11256954932417254,0.5928293170556415,0.88031005859375,0.4761505126953125,0.2309112548828125
20220130-1533,2022-01-30 15:33:49Z,u01, 210,40,movements,el-ex, rt, d,70911.77327291667, 1.882030408790487, -0.4921133951401847, -2.818719500914717, -1.2985972166061401, -0.817335307598114, -0.4241611957550049, 0.8389936685562134, 0.4724895656108856, 0.2698948383331299, 0.043742477893829346, -0.08776974678039551, 0.05801662802696228, -0.750564029589867, -0.2675837270473528, 0.10247510976715257,0.5954422091081619,0.885650634765625,0.3891754150390625,0.3235321044921875
20220130-1533,2022-01-30 15:33:49Z,u01, 211,40,movements,el-ex, rt, d,70911.79821791667, 1.8814365651409641, -0.4909734051040597, -2.774154742911092, -1.6496939659118652, -0.887968122959137, -0.44732505083084106, 0.8396661877632141, 0.47148454189300537, 0.2695610523223877, -0.005697071552276611, -0.12004411220550537, 0.07949912548065186, -0.7444080172573974, -0.2839669540677258, 0.08864434469196786,0.5977973946803539,0.825927734375,0.35198974609375,0.34375
20220130-1533,2022-01-30 15:33:49Z,u01, 212,40,movements,el-ex, rt, d,70911.82316391668, 1.8815763733315978, -0.48973750343311157, -2.7277422620951803, -1.4412257671356201, -0.8735572099685669, -0.45391610264778137, 0.8401826024055481, 0.4703942537307739, 0.26985639333724976, -0.039813339710235596, -0.0856439471244812, 0.05602559447288513, -0.7378514592765792, -0.30083787461682315, 0.0742779626690486,0.5996287149317578,0.7994842529296875,0.3845672607421875,0.326629638671875
20220130-1533,2022-01-30 15:33:49Z,u01, 213,40,movements,el-ex, rt, d,70911.84810891667, 1.8802650547444264, -0.4896100150700219, -2.6844217571400417, -1.5304312705993652, -0.8856114745140076, -0.4657604992389679, 0.8405928611755371, 0.4702817499637604, 0.268772691488266, -0.01857137680053711, -0.11380597949028015, 0.08643671870231628, -0.7307888102021964, -0.31675552223906683, 0.06101503688075413,0.601573637558833,0.8271484375,0.3497467041015625,0.36053466796875
20220130-1533,2022-01-30 15:33:49Z,u01, 214,40,movements,el-ex, rt, d,70911.87305391667, 1.8794073702752876, -0.4885682244452185, -2.6372133060845986, -1.6534414291381836, -0.9597188234329224, -0.46220049262046814, 0.8412895798683167, 0.4693621098995209, 0.2682003378868103, 0.015888333320617676, -0.10054188966751099, 0.09895685315132141, -0.7230235852089938, -0.3336721014038101, 0.04624269764233613,0.6031265122646765,0.8563079833984375,0.3682861328125,0.3663330078125
20220130-1533,2022-01-30 15:33:49Z,u01, 215,40,movements,el-ex, rt, d,70911.89799991668, 1.877551960176303, -0.4869466527144721, -2.588034998491891, -1.717015027999878, -1.001355528831482, -0.46310439705848694, 0.8425099849700928, 0.4679296314716339, 0.26686835289001465, 0.03183382749557495, -0.08024963736534119, 0.10659059882164001, -0.7143193732971335, -0.3509729510128423, 0.0304317167514169,0.6046814989770875,0.8754119873046875,0.3936767578125,0.3730010986328125
20220130-1533,2022-01-30 15:33:49Z,u01, 216,40,movements,el-ex, rt, d,70911.92294491667, 1.876483724919333, -0.485221861392259, -2.5388746410390444, -1.5685839653015137, -0.916826605796814, -0.4563150405883789, 0.8435632586479187, 0.46640461683273315, 0.26621079444885254, 0.029071807861328125, -0.03152906894683838, 0.0835818350315094, -0.7054608403213225, -0.36800868798197706, 0.014682853021246667,0.6055404153250102,0.8728485107421875,0.431427001953125,0.3511199951171875
20220130-1533,2022-01-30 15:33:49Z,u01, 217,40,movements,el-ex, rt, d,70911.94789091666, 1.8736296434823385, -0.48580973804970384, -2.4969649158263776, -1.3385001420974731, -0.8947615027427673, -0.4957801103591919, 0.8440576791763306, 0.4669245481491089, 0.2637202739715576, 0.02679210901260376, -0.0163324773311615, 0.09864559769630432, -0.6966223301774443, -0.3828543645020982, 0.001676716874121048,0.6067430957329738,0.8678741455078125,0.4417724609375,0.3679046630859375
20220130-1533,2022-01-30 15:33:49Z,u01, 218,40,movements,el-ex, rt, d,70911.97283591668, 1.8714023941197757, -0.48757828764590216, -2.4538743404387495, -1.5143799781799316, -0.9062560200691223, -0.5524287819862366, 0.8438528776168823, 0.4684877395629883, 0.2615947723388672, 0.003315150737762451, -0.05158713459968567, 0.11409199237823486, -0.6872034604400248, -0.39818185035935005, -0.011145021180083897,0.6075183332003659,0.847198486328125,0.416961669921875,0.3762359619140625
20220130-1533,2022-01-30 15:33:49Z,u01, 219,40,movements,el-ex, rt, d,70911.99778191667, 1.8703460942849732, -0.4902839785164676, -2.407450573703713, -1.5764614343643188, -0.9192370176315308, -0.6175728440284729, 0.8429146409034729, 0.47087642550468445, 0.2603282928466797, 0.01848989725112915, -0.03687065839767456, 0.11252078413963318, -0.6769302733955963, -0.4146438862732069, -0.024405464580679603,0.6076515837705398,0.86810302734375,0.4326171875,0.3744659423828125
20220130-1533,2022-01-30 15:33:49Z,u01, 220,40,movements,el-ex, rt, d,70912.02272691666, 1.8708472346701974, -0.4933444439955759, -2.3579809499144386, -1.6583338975906372, -0.9228036999702454, -0.6418056488037109, 0.8414034247398376, 0.473574161529541, 0.26032349467277527, 0.07658082246780396, -0.07800519466400146, 0.11890333890914917, -0.6660067006401345, -0.4319685511917145, -0.03813008791076475,0.6069469063186045,0.91668701171875,0.3961334228515625,0.381195068359375
20220130-1533,2022-01-30 15:33:49Z,u01, 221,40,movements,el-ex, rt, d,70912.04767291667, 1.871516082559817, -0.496326739800989, -2.308708704323286, -1.5866787433624268, -0.9158432483673096, -0.6135298013687134, 0.8398764133453369, 0.4761987328529358, 0.26046672463417053, 0.07432365417480469, -0.06575250625610352, 0.0991678535938263, -0.65475042671718, -0.44892675984093827, -0.05176786812244619,0.6058769920894566,0.9149322509765625,0.4141998291015625,0.358978271484375
20220130-1533,2022-01-30 15:33:49Z,u01, 222,40,movements,el-ex, rt, d,70912.07261791667, 1.870487963885035, -0.4988342557398084, -2.261292979877852, -1.5757311582565308, -0.9928869605064392, -0.5790160894393921, 0.8389999866485596, 0.47840216755867004, 0.25924965739250183, 0.07695454359054565, -0.05164444446563721, 0.107892245054245, -0.6430814236645442, -0.4648345003341062, -0.06539178428723044,0.6050612199697731,0.9176025390625,0.425537109375,0.3677215576171875
20220130-1533,2022-01-30 15:33:49Z,u01, 223,40,movements,el-ex, rt, d,70912.09756275, 1.8693782388060471, -0.5002139196011957, -2.2130032841480705, -1.6180024147033691, -0.9419568181037903, -0.531911313533783, 0.8386556506156921, 0.4796132743358612, 0.25812408328056335, 0.009473681449890137, -0.025542259216308594, 0.07814931869506836, -0.6310364026164608, -0.48047382329183697, -0.07972079953654895,0.603806788969298,0.8358306884765625,0.4552154541015625,0.33349609375
20220130-1533,2022-01-30 15:33:49Z,u01, 224,40,movements,el-ex, rt, d,70912.12250875, 1.8699783870837074, -0.5007148659917323, -2.164863747679725, -1.5768147706985474, -0.8528586030006409, -0.49958640336990356, 0.8382709622383118, 0.48005276918411255, 0.2585565149784088, -0.08714163303375244, -0.011317998170852661, 0.04178240895271301, -0.6193586788481822, -0.49565420067983545, -0.09389143066518563,0.6015864629654406,0.754730224609375,0.4671783447265625,0.3031158447265625
20220130-1533,2022-01-30 15:33:49Z,u01, 225,40,movements,el-ex, rt, d,70912.14745375, 1.8709375829470802, -0.5013003914672054, -2.120830306395039, -1.368161678314209, -0.7758303284645081, -0.46737509965896606, 0.8377536535263062, 0.4805663228034973, 0.25927725434303284, -0.12928813695907593, 0.0038543343544006348, 0.016967982053756714, -0.6084509939837162, -0.5093387976653524, -0.10664798749167155,0.5991556941943698,0.705535888671875,0.4865570068359375,0.276153564453125
20220130-1533,2022-01-30 15:33:49Z,u01, 226,40,movements,el-ex, rt, d,70912.17239975001, 1.8702627600777244, -0.5022452537993018, -2.081948251308579, -1.2444640398025513, -0.7854796648025513, -0.41681167483329773, 0.8374941945075989, 0.4813947379589081, 0.25857779383659363, -0.12248271703720093, 0.028614938259124756, 0.00745922327041626, -0.5980143559323596, -0.5212175375469462, -0.11809815820289248,0.5972971621967622,0.71405029296875,0.5092315673828125,0.2674102783203125
20220130-1533,2022-01-30 15:33:49Z,u01, 227,40,movements,el-ex, rt, d,70912.19734475, 1.8691650892235716, -0.5017903175783541, -2.0437676203569017, -1.3161687850952148, -0.7768704891204834, -0.3217965364456177, 0.8379868865013123, 0.48099592328071594, 0.2577227056026459, -0.08958899974822998, 0.02083510160446167, 0.007078409194946289, -0.5877362405968102, -0.5323790650951886, -0.12993956150949462,0.5951927313063291,0.757415771484375,0.498779296875,0.262603759765625
20220130-1533,2022-01-30 15:33:49Z,u01, 228,40,movements,el-ex, rt, d,70912.22229075001, 1.867245638554652, -0.49895910244694636, -2.0075799101471277, -1.1542723178863525, -0.7744972705841064, -0.19939014315605164, 0.8397790789604187, 0.4785118103027344, 0.25651055574417114, -0.005062222480773926, 0.04617688059806824, 0.009526491165161133, -0.5781145186926699, -0.5422535239577306, -0.14224993069398664,0.5928825517336976,0.8316802978515625,0.5248260498046875,0.2653961181640625
20220130-1533,2022-01-30 15:33:49Z,u01, 229,40,movements,el-ex, rt, d,70912.24723575001, 1.8620485238472477, -0.494942943388938, -1.978369088452718, -0.9243870973587036, -0.7540892958641052, -0.11067179590463638, 0.8429349064826965, 0.4749814569950104, 0.25269249081611633, 0.011130094528198242, 0.057809650897979736, 0.017311811447143555, -0.5695657260497476, -0.5494917031088372, -0.15379079988119745,0.5916098241111792,0.849212646484375,0.5369720458984375,0.2669525146484375
20220130-1533,2022-01-30 15:33:49Z,u01, 230,40,movements,el-ex, rt, d,70912.27218175, 1.8562079041167066, -0.49077819352259794, -1.9524400557108366, -1.0112354755401611, -0.7081129550933838, -0.11901354044675827, 0.846287190914154, 0.47131237387657166, 0.24831975996494293, -0.05597347021102905, 0.07632550597190857, 0.04539678990840912, -0.5616849007923836, -0.5555807359679704, -0.16458269714760523,0.5905528761818013,0.7922210693359375,0.54888916015625,0.2899169921875
20220130-1533,2022-01-30 15:33:49Z,u01, 231,40,movements,el-ex, rt, d,70912.29712675001, 1.8548080493751185, -0.4852558085860162, -1.9179755319164675, -1.4140832424163818, -0.6890581846237183, -0.12231013923883438, 0.8491196632385254, 0.46643465757369995, 0.24786041676998138, -0.07310336828231812, 0.05419519543647766, 0.08758890628814697, -0.5529767387750081, -0.5640451498864755, -0.17711460826303244,0.5871118373297367,0.7717437744140625,0.52154541015625,0.3390045166015625
20220130-1533,2022-01-30 15:33:49Z,u01, 232,40,movements,el-ex, rt, d,70912.32207275, 1.8556876539563176, -0.47848121373525965, -1.8812019374672624, -1.1342178583145142, -0.5573322772979736, -0.07109136134386063, 0.8519142866134644, 0.4604314863681793, 0.24948959052562714, -0.13212662935256958, 0.1328302025794983, 0.029181718826293945, -0.5444544026420147, -0.5729870824233345, -0.19003915599461427,0.5823576294660594,0.7218780517578125,0.589874267578125,0.2793731689453125
20220130-1533,2022-01-30 15:33:49Z,u01, 233,40,movements,el-ex, rt, d,70912.34701775, 1.8539658912072015, -0.47333968679854727, -1.8590392126276947, -0.5058239698410034, -0.4086250364780426, 0.020073503255844116, 0.8546045422554016, 0.45586130023002625, 0.24868062138557434, -0.12601238489151, 0.14951598644256592, 0.05397754907608032, -0.5388573783618203, -0.5779040022732799, -0.19879795502780792,0.5797751877102906,0.73785400390625,0.598846435546875,0.3087921142578125
20220130-1533,2022-01-30 15:33:49Z,u01, 234,40,movements,el-ex, rt, d,70912.37196275001, 1.8490751270648385, -0.4694136582705721, -1.8490972376694597, -0.35942912101745605, -0.3696964681148529, 0.08247143775224686, 0.8575245141983032, 0.45236343145370483, 0.24498765170574188, -0.003215491771697998, 0.09837192296981812, 0.10214981436729431, -0.5355454469220104, -0.5793832073951392, -0.20447922721657885,0.5793913885915344,0.8486175537109375,0.554443359375,0.344207763671875
20220130-1533,2022-01-30 15:33:49Z,u01, 235,40,movements,el-ex, rt, d,70912.39690875, 1.8440444812046957, -0.4639679491163859, -1.8372161079241773, -0.5981472730636597, -0.4367721974849701, 0.10242436826229095, 0.8611054420471191, 0.447500079870224, 0.24133190512657166, 0.02883291244506836, 0.06063273549079895, 0.12277339398860931, -0.5320083476758966, -0.5810620195917088, -0.21129070942141093,0.5785242480039252,0.8750457763671875,0.5025634765625,0.3649444580078125
20220130-1533,2022-01-30 15:33:49Z,u01, 236,40,movements,el-ex, rt, d,70912.42185375, 1.8414219665448286, -0.45801168867644654, -1.8204546255260698, -0.6176265478134155, -0.3487176299095154, 0.0368475578725338, 0.8642886877059937, 0.4421656131744385, 0.2397811859846115, -0.12190264463424683, 0.04465082287788391, 0.10781410336494446, -0.5278676536076975, -0.5841629331248883, -0.21897453728357608,0.5763329984441625,0.7465972900390625,0.4864349365234375,0.35003662109375
20220130-1533,2022-01-30 15:33:49Z,u01, 237,40,movements,el-ex, rt, d,70912.44679975, 1.839223852471739, -0.45447336361279894, -1.8110887412968049, -0.07414685934782028, -0.15799368917942047, 0.06639806181192398, 0.8663164377212524, 0.43898919224739075, 0.23829415440559387, -0.14835995435714722, 0.042166054248809814, 0.05964893102645874, -0.5253888567552958, -0.5857590159388326, -0.22354351008011533,0.5752226734876507,0.720306396484375,0.4794464111328125,0.2957305908203125
20220130-1533,2022-01-30 15:33:50Z,u01, 238,40,movements,el-ex, rt, d,70912.47174475, 1.8360225735947215, -0.4525607862917542, -1.8140892920470248, 0.13618287444114685, -0.01353357918560505, 0.1278679519891739, 0.8678838014602661, 0.4372699558734894, 0.2357393503189087, -0.09008204936981201, -0.00358465313911438, 0.08722832798957825, -0.5258282929178727, -0.5842724369415137, -0.22428002973598588,0.5760459383333343,0.7763519287109375,0.43511962890625,0.3190765380859375
20220130-1533,2022-01-30 15:33:50Z,u01, 239,40,movements,el-ex, rt, d,70912.49669075, 1.8357201433116659, -0.4494522509213553, -1.8143571759519423, -0.21903690695762634, -0.029802629724144936, 0.08495316654443741, 0.8692627549171448, 0.4344722628593445, 0.23583164811134338, -0.07353192567825317, 0.024466395378112793, 0.13181379437446594, -0.5266037842114368, -0.5836131220978651, -0.22536921779686125,0.5755806288867193,0.80078125,0.465606689453125,0.3712921142578125
20220130-1533,2022-01-30 15:33:50Z,u01, 240,40,movements,el-ex, rt, d,70912.52163575, 1.8393014314765803, -0.4459083427870321, -1.802650545227048, -0.5738078355789185, -0.0791066586971283, -0.02717137336730957, 0.8698917627334595, 0.4312775731086731, 0.23935019969940186, -0.02592790126800537, 0.1452758014202118, 0.15397578477859497, -0.5251013111312405, -0.5864671471045636, -0.22890908760374717,0.5726480245912897,0.840972900390625,0.5706787109375,0.3943328857421875
20220130-1533,2022-01-30 15:33:50Z,u01, 241,40,movements,el-ex, rt, d,70912.54658175001, 1.8458726626278832, -0.4452453458750773, -1.7880356347054964, -0.4034547805786133, 0.14694371819496155, -0.19203069806098938, 0.8685747385025024, 0.4306793212890625, 0.2451387494802475, -0.017515897750854492, 0.25515738129615784, 0.17466112971305847, -0.5228426877220591, -0.590935612954649, -0.2313751992739018,0.569118670902841,0.8529052734375,0.693389892578125,0.4256134033203125
20220130-1533,2022-01-30 15:33:50Z,u01, 242,40,movements,el-ex, rt, d,70912.57152675, 1.8580292196858321, -0.450353504934308, -1.779402828996013, -0.08074680715799332, 0.5365982055664062, -0.366918683052063, 0.8634097576141357, 0.4352838099002838, 0.25505274534225464, -0.024359285831451416, 0.2783850431442261, 0.22729292511940002, -0.5224390257579078, -0.5954694287841482, -0.2284564246938908,0.5659341107461028,0.8421630859375,0.70965576171875,0.4783477783203125
20220130-1533,2022-01-30 15:33:50Z,u01, 243,40,movements,el-ex, rt, d,70912.59647175, 1.8785560176147829, -0.46289802488231396, -1.7751269761428696, -0.04146891087293625, 0.9477777481079102, -0.7199627757072449, 0.852721631526947, 0.44654300808906555, 0.2710453271865845, -0.054412126541137695, 0.31245970726013184, 0.30959752202033997, -0.5237749289081052, -0.6009845974527235, -0.21917750269124872,0.5625288785706147,0.7947845458984375,0.76495361328125,0.6006317138671875
20220130-1533,2022-01-30 15:33:50Z,u01, 244,40,movements,el-ex, rt, d,70912.62141775001, 1.9127161263288406, -0.4839956307764527, -1.7614383894059624, -0.2837469279766083, 1.3070461750030518, -1.185286521911621, 0.8339042067527771, 0.46531957387924194, 0.2967851459980011, -0.0072135329246521, 0.3811311423778534, 0.3254224956035614, -0.5238330390171357, -0.6115484615731228, -0.20529465432059452,0.5562926507442916,0.8243865966796875,0.84271240234375,0.623382568359375
20220130-1533,2022-01-30 15:33:50Z,u01, 245,40,movements,el-ex, rt, d,70912.64636275, 1.9603623867346753, -0.5133708670189876, -1.73931786230971, -0.3140847980976105, 1.6809816360473633, -1.5317875146865845, 0.8058261871337891, 0.49111637473106384, 0.3308301270008087, 0.04205888509750366, 0.4080686569213867, 0.3084215223789215, -0.5226737356960118, -0.6262804689052516, -0.18633450128949797,0.5475986457228909,0.850860595703125,0.8908843994140625,0.65203857421875
20220130-1533,2022-01-30 15:33:50Z,u01, 246,40,movements,el-ex, rt, d,70912.67130875001, 2.0200431978858853, -0.5476756778214067, -1.7122141250963892, -0.21662095189094543, 2.0186915397644043, -1.7112953662872314, 0.7690247893333435, 0.5207042694091797, 0.3707672655582428, 0.07397770881652832, 0.2973957657814026, 0.321646124124527, -0.521525467924414, -0.6429578657391624, -0.16260236525675104,0.5368212002646529,0.8448944091796875,0.8185577392578125,0.6903839111328125
20220130-1533,2022-01-30 15:33:50Z,u01, 247,40,movements,el-ex, rt, d,70912.69625375001, 2.0878881236258673, -0.5868523362777119, -1.6870248412673616, 0.11524999886751175, 2.3344502449035645, -1.8498597145080566, 0.7238227128982544, 0.5537427663803101, 0.41164278984069824, 0.09629154205322266, 0.29336416721343994, 0.31057095527648926, -0.5214011624269519, -0.6587580883142233, -0.13325038620385848,0.525759435867836,0.8218994140625,0.8486785888671875,0.728363037109375
20220130-1533,2022-01-30 15:33:50Z,u01, 248,40,movements,el-ex, rt, d,70912.72119975, 2.1660073192137403, -0.628625481060941, -1.6570877149823438, -0.0890791043639183, 2.555926561355591, -2.0475406646728516, 0.6697410345077515, 0.5880335569381714, 0.45350125432014465, 0.16752392053604126, 0.27048683166503906, 0.3261313736438751, -0.5211608728502091, -0.6746421048799602, -0.10001741063546465,0.5130749101551565,0.8379974365234375,0.8558502197265625,0.78076171875
20220130-1533,2022-01-30 15:33:50Z,u01, 249,40,movements,el-ex, rt, d,70912.74614475001, 2.2596118949129305, -0.6687694488901432, -1.61094842953165, -0.34749123454093933, 2.7160332202911377, -2.2715110778808594, 0.605699360370636, 0.6200209856033325, 0.49870064854621887, 0.2176496386528015, 0.26279139518737793, 0.3222223222255707, -0.5189989339950063, -0.6928134162815689, -0.06528750353501583,0.4963741014575599,0.819183349609375,0.8876800537109375,0.818206787109375
20220130-1533,2022-01-30 15:33:50Z,u01, 250,40,movements,el-ex, rt, d,70912.77109075, 2.365948151123215, -0.7076005548446795, -1.5547066357530326, 0.0007914621382951736, 2.9537909030914307, -2.3781778812408447, 0.5320806503295898, 0.6500122547149658, 0.5425626635551453, 0.24401187896728516, 0.2745482325553894, 0.21576863527297974, -0.515699742903559, -0.7108692695469213, -0.02789425155164138,0.4774312200650967,0.779205322265625,0.9215545654296875,0.7599029541015625
20220130-1533,2022-01-30 15:33:50Z,u01, 251,40,movements,el-ex, rt, d,70912.79603575, 2.4780916174416943, -0.7525965073180545, -1.4996962391754631, 0.3856552541255951, 3.0841009616851807, -2.48471999168396, 0.44954031705856323, 0.6835362911224365, 0.5750582218170166, 0.26713454723358154, 0.23861336708068848, 0.22192370891571045, -0.5116942982388962, -0.7250503875069172, 0.01512467595909503,0.4606975503001885,0.7055816650390625,0.9178466796875,0.820556640625
20220130-1533,2022-01-30 15:33:50Z,u01, 252,40,movements,el-ex, rt, d,70912.82098075001, 2.6050686562147263, -0.7901675616466908, -1.4283011615248626, -0.3748317062854767, 3.0638606548309326, -2.616873025894165, 0.359710693359375, 0.7104712128639221, 0.6048460602760315, 0.3268280327320099, 0.0882652997970581, 0.3077821135520935, -0.5058089228889493, -0.7393107454374447, 0.05821410739009841,0.44066772600979265,0.6865081787109375,0.796844482421875,0.911041259765625
20220130-1533,2022-01-30 15:33:50Z,u01, 253,40,movements,el-ex, rt, d,70912.84592675, 2.7498595358930884, -0.8066055706025077, -1.3348736970289297, -0.5294833779335022, 3.1566174030303955, -2.63379168510437, 0.26418137550354004, 0.7219425439834595, 0.6395368576049805, 0.37403279542922974, 0.14284932613372803, 0.20370972156524658, -0.4984399608735337, -0.7558611222380867, 0.09768648419772116,0.41314524543421993,0.6244659423828125,0.8880615234375,0.8250732421875
20220130-1533,2022-01-30 15:33:50Z,u01, 254,40,movements,el-ex, rt, d,70912.87087175, 2.899016641130513, -0.8213936579095763, -1.2409638646274037, -0.014889262616634369, 3.2890031337738037, -2.64700984954834, 0.16362738609313965, 0.7320958971977234, 0.6612577438354492, 0.3726428151130676, 0.1759088635444641, 0.12089264392852783, -0.48986009590571705, -0.768547961056348, 0.14017636730968303,0.3869389517795755,0.539459228515625,0.9156036376953125,0.779296875
