SessionID,LoggingTime,UID,RecNo,Hertz,Activity,MoveType,Wrist,Side,TimeStamp,DMRoll,DMPitch,DMYaw,DMRotX,DMRotY,DMRotZ,DMGrvX,DMGrvY,DMGrvZ,DMUAccelX,DMUAccelY,DMUAccelZ,DMQuatX,DMQuatY,DMQuatW,DMQuatZ,AccelroX,AceelroY,AceelroZ
20220201-1655,2022-02-01 16:55:35Z,u01, 1,40,movements,el-ex, lt, nd,118764.89435279167, -0.03632430269977432, -0.06625490182938477, -0.0012039042061721696, 0.04251987487077713, 0.01182931661605835, 0.0007393714040517807, -0.036236636340618134, 0.0662064403295517, -0.9971477389335632, 0.0020262636244297028, 0.010118328034877777, 0.0003521442413330078, -0.03312685009905414, -0.018131251272168053, 0.9992866654448654,0.0,-0.0251922607421875,0.0596771240234375,-0.993896484375
20220201-1655,2022-02-01 16:55:35Z,u01, 2,40,movements,el-ex, lt, nd,118764.91929979167, -0.03610324120234212, -0.06560759506412148, -0.0010104594753299477, 0.006685175001621246, -0.0008835485205054283, 0.011569115333259106, -0.03601774200797081, 0.06556054204702377, -0.9971983432769775, 0.009146850556135178, -0.006279841065406799, 0.0052855610847473145, -0.03280168418862647, -0.018024360420952807, 0.999299256059037,8.714774927837121e-05,-0.033447265625,0.080047607421875,-0.992706298828125
20220201-1655,2022-02-01 16:55:35Z,u01, 3,40,movements,el-ex, lt, nd,118764.94424779167, -0.036212205308344805, -0.06591029204260579, -0.0008237177510581873, -0.012461787089705467, -0.005860264413058758, 0.005671745166182518, -0.036125682294368744, 0.06586258113384247, -0.9971745610237122, 0.004280418157577515, 0.005670927464962006, 0.002286255359649658, -0.032951229059691445, -0.01808171235393203, 0.9992934082551019,0.00018498079031398218,-0.03094482421875,0.0675506591796875,-0.996551513671875
20220201-1655,2022-02-01 16:55:35Z,u01, 4,40,movements,el-ex, lt, nd,118764.96919479167, -0.03629868202030972, -0.06607481884940626, -0.0006360091195212266, 0.0016427794471383095, -0.002788442187011242, 0.005379463545978069, -0.0362115204334259, 0.06602674722671509, -0.9971605539321899, 0.009828902781009674, 0.015760667622089386, 0.0001055598258972168, -0.03303172537641976, -0.01812793756896556, 0.9992898745254127,0.0002816864823808607,-0.02777099609375,0.0612335205078125,-0.994049072265625
20220201-1655,2022-02-01 16:55:35Z,u01, 5,40,movements,el-ex, lt, nd,118764.99414279168, -0.03649944391306981, -0.06633950310300618, -0.0007163109693265968, -0.010373502969741821, -0.017652010545134544, -0.005620922893285751, -0.03641107305884361, 0.06629085540771484, -0.9971357583999634, 0.009433366358280182, 0.018075302243232727, 0.004093825817108154, -0.03316467667254999, -0.018226793751083277, 0.999283671861379,0.00024729523149696897,-0.0294952392578125,0.07861328125,-0.993621826171875
20220201-1655,2022-02-01 16:55:35Z,u01, 6,40,movements,el-ex, lt, nd,118765.01909079167, -0.035709243562718554, -0.06661578468161472, -0.0019296339906193147, -0.001313263550400734, -0.4124799370765686, 0.27437564730644226, -0.03562247008085251, 0.06656652688980103, -0.9971458911895752, 0.3515097498893738, -0.02226995676755905, -0.06968754529953003, -0.03331362607612669, -0.017811637022136756, 0.9992861633150067,-0.0003695700203429908,-0.027069091796875,0.0818328857421875,-0.996124267578125
20220201-1655,2022-02-01 16:55:35Z,u01, 7,40,movements,el-ex, lt, nd,118765.04403779167, -0.0358090243916083, -0.06696567805383856, -0.0030437132421541075, 0.0035460731014609337, 0.016438648104667664, -0.055069901049137115, -0.035721126943826675, 0.06691563874483109, -0.9971190094947815, -0.009734969586133957, 0.013574771583080292, 0.0006285905838012695, -0.03349841016496183, -0.01784256166845099, 0.9992790614066107,-0.0009214100739657338,0.024200439453125,0.08221435546875,-1.0048980712890625
20220201-1655,2022-02-01 16:55:35Z,u01, 8,40,movements,el-ex, lt, nd,118765.06898579167, -0.035756124608242616, -0.06665443201350088, -0.004146886890637683, 0.01394764892756939, -0.004494728520512581, -0.025290299206972122, -0.03566912189126015, 0.0666050910949707, -0.9971416592597961, -0.0013183467090129852, 0.0013883784413337708, -0.001423954963684082, -0.033352696635704136, -0.017798066024346963, 0.9992840745464,-0.0014762766670649574,-0.2092437744140625,0.113189697265625,-0.9495391845703125
20220201-1655,2022-02-01 16:55:35Z,u01, 9,40,movements,el-ex, lt, nd,118765.09393279167, -0.03583822295263774, -0.06646324274386571, -0.004622180776387461, 0.004356807097792625, -0.0026456965133547783, -0.008902004919946194, -0.03575144335627556, 0.06641431897878647, -0.9971514344215393, -0.010482851415872574, -0.01572432368993759, 0.002293705940246582, -0.033261470529215256, -0.01783143731475515, 0.9992861155528259,-0.0017141034385804166,-0.037933349609375,0.0742340087890625,-0.998046875
20220201-1655,2022-02-01 16:55:35Z,u01, 10,40,movements,el-ex, lt, nd,118765.11888079168, -0.03592001029123804, -0.06677759972476231, -0.0047024028894601085, -0.030623281374573708, -0.0005782842636108398, -0.0003916067071259022, -0.0358322449028492, 0.06672798097133636, -0.9971275925636292, -0.005885448306798935, -0.009400404989719391, -0.0013922452926635742, -0.03341932238631331, -0.017870504107734463, 0.9992800999355618,-0.0017499921330594859,-0.0431365966796875,0.05010986328125,-0.9951629638671875
20220201-1655,2022-02-01 16:55:35Z,u01, 11,40,movements,el-ex, lt, nd,118765.14382779167, -0.03593563938604872, -0.06745451553365829, -0.0046023021789295985, -0.00974945817142725, 2.165883779525757e-05, 0.008237767033278942, -0.035846199840307236, 0.06740337610244751, -0.9970816373825073, -0.0017668865621089935, -0.000813707709312439, 0.0018882155418395996, -0.03375665155041052, -0.01787900280911074, 0.9992687371141022,-0.0016936129306341363,-0.0447235107421875,0.05157470703125,-0.9957427978515625
20220201-1655,2022-02-01 16:55:35Z,u01, 12,40,movements,el-ex, lt, nd,118765.16877579168, -0.03561841137938902, -0.06708340134699377, -0.004373776996510096, 0.03435029089450836, 0.017198383808135986, 0.005357958376407623, -0.035530783236026764, 0.06703309714794159, -0.9971179366111755, -0.005027245730161667, 0.0043325647711753845, 0.003480851650238037, -0.033568935562637285, -0.017724878238702245, 0.999277976051184,-0.0015881040414693626,-0.037261962890625,0.059326171875,-1.0005950927734375
20220201-1655,2022-02-01 16:55:35Z,u01, 13,40,movements,el-ex, lt, nd,118765.19372279168, -0.0353953554284358, -0.06387922332017078, -0.004140950323016206, 0.021014612168073654, 0.010536683723330498, 0.00863437820225954, -0.03531578928232193, 0.06383578479290009, -0.9973353147506714, 0.002417672425508499, -0.008476592600345612, 0.010717332363128662, -0.03196573248282774, -0.017621580750221542, 0.9993325330792334,-0.0015039634586644368,-0.03955078125,0.071319580078125,-0.9928436279296875
20220201-1655,2022-02-01 16:55:35Z,u01, 14,40,movements,el-ex, lt, nd,118765.21867079167, -0.03535437726417907, -0.0633387089853056, -0.0036222702231606535, -0.021459277719259262, 0.00239420123398304, 0.03247859328985214, -0.0352761335670948, 0.0632963702082634, -0.9973711371421814, 0.003263026475906372, -0.0006892532110214233, 0.0024828314781188965, -0.03169105869880358, -0.017610035980375496, 0.9993418237159172,-0.001250241620321002,-0.0335540771484375,0.0644683837890625,-0.988555908203125
20220201-1655,2022-02-01 16:55:35Z,u01, 15,40,movements,el-ex, lt, nd,118765.24361879168, -0.035402423460072635, -0.06527753979314284, -0.002944969904302711, -0.02482284978032112, 0.007841965183615685, 0.018878895789384842, -0.03531964495778084, 0.06523118913173676, -0.9972448945045471, 0.0018569491803646088, 0.0019993409514427185, 0.013526082038879395, -0.03265387904415951, -0.017642798102137702, 0.9993105294152422,-0.0008938571898084446,-0.033538818359375,0.05682373046875,-0.9882965087890625
20220201-1655,2022-02-01 16:55:35Z,u01, 16,40,movements,el-ex, lt, nd,118765.26856579167, -0.034801966395277904, -0.0654412102444859, -0.002388183784544873, 0.011710826307535172, 0.037133075296878815, 0.022544268518686295, -0.03472046181559563, 0.06539451330900192, -0.997255265712738, -0.0006953515112400055, 0.007847972214221954, 0.013368606567382812, -0.03273055632142864, -0.017351720084039506, 0.9993134003296635,-0.0006240318003206125,-0.03076171875,0.0621185302734375,-0.9936676025390625
20220201-1655,2022-02-01 16:55:35Z,u01, 17,40,movements,el-ex, lt, nd,118765.29351379168, -0.033498671381214595, -0.06421757080390236, -0.0019904832662175206, 0.0003593349829316139, 0.05792803317308426, 0.01880805194377899, -0.033423371613025665, 0.06417344510555267, -0.9973788857460022, 0.0067966170608997345, 0.009236887097358704, 0.010455727577209473, -0.032115408216685466, -0.01670796450160364, 0.9993444523599163,-0.00045690596910485937,-0.032318115234375,0.07574462890625,-0.9840850830078125
20220201-1655,2022-02-01 16:55:35Z,u01, 18,40,movements,el-ex, lt, nd,118765.31846079168, -0.03199986393970778, -0.0636584779094575, -0.0015612794529988952, 0.03167085349559784, 0.06001901626586914, 0.00926421582698822, -0.03192959725856781, 0.06361549347639084, -0.997463583946228, 0.00840037688612938, 0.012983940541744232, 0.006664633750915527, -0.03183226580862317, -0.01596630124661773, 0.9993656335057856,-0.0002709865706264636,-0.035064697265625,0.0727691650390625,-0.9860687255859375
20220201-1655,2022-02-01 16:55:35Z,u01, 19,40,movements,el-ex, lt, nd,118765.34340879167, -0.030628316298589565, -0.0640770896829148, -0.001172752531538293, 0.036909319460392, 0.06070724129676819, 0.021197907626628876, -0.030560681596398354, 0.06403324753046036, -0.9974797368049622, 0.0073213763535022736, 0.014031022787094116, 0.002240478992462158, -0.03203827724195077, -0.015286916940778265, 0.9993697263855232,-9.546643695257373e-05,-0.0221710205078125,0.0727996826171875,-0.987701416015625
20220201-1655,2022-02-01 16:55:35Z,u01, 20,40,movements,el-ex, lt, nd,118765.36835579168, -0.02927210000500627, -0.06472882792605775, -0.0008251027335266601, -0.006416379474103451, 0.05859176069498062, 0.0051626162603497505, -0.02920662797987461, 0.06468363851308823, -0.9974783062934875, 0.007828895002603531, 0.008879296481609344, 0.008907198905944824, -0.03236132965726062, -0.014614513296602752, 0.9993694028809749,6.12963723049531e-05,-0.0252838134765625,0.0797119140625,-0.991180419921875
20220201-1655,2022-02-01 16:55:35Z,u01, 21,40,movements,el-ex, lt, nd,118765.39330379167, -0.027372053535967614, -0.06584789329173421, -0.0007046609408261587, 0.036199524998664856, 0.08072928339242935, 0.0029479311779141426, -0.027309322729706764, 0.06580031663179398, -0.9974590539932251, 0.0022847410291433334, 0.019496619701385498, 0.0037914514541625977, -0.0329197302687452, -0.013666583726721665, 0.9993646382277853,9.839589233739954e-05,-0.0218505859375,0.0746307373046875,-0.993865966796875
20220201-1655,2022-02-01 16:55:35Z,u01, 22,40,movements,el-ex, lt, nd,118765.41825079167, -0.025134413241862802, -0.0656520154799414, -0.0007637061139418136, 0.058896612375974655, 0.09532241523265839, -0.008172031491994858, -0.02507762424647808, 0.06560486555099487, -0.9975305199623108, 0.0007396899163722992, 0.007393486797809601, 0.004610657691955566, -0.0328223174215136, -0.012547574333209795, 0.9993823571333165,3.082912274826599e-05,-0.0241546630859375,0.07977294921875,-0.986236572265625
20220201-1655,2022-02-01 16:55:35Z,u01, 23,40,movements,el-ex, lt, nd,118765.44319879168, -0.022465370520715948, -0.06561682333885843, -0.0009201562189232741, 0.02543795481324196, 0.12612126767635345, -0.016691017895936966, -0.02241513878107071, 0.06556974351406097, -0.9975962042808533, -7.648393511772156e-05, -0.003115221858024597, 0.0047983527183532715, -0.032805615724337746, -0.011211311472229367, 0.9993989448320642,-9.134888127132479e-05,-0.024017333984375,0.0756683349609375,-0.9962921142578125
20220201-1655,2022-02-01 16:55:35Z,u01, 24,40,movements,el-ex, lt, nd,118765.46814679167, -0.019151308016489923, -0.06778931468936292, -0.00145915095876744, -0.09485156834125519, 0.13934440910816193, -0.012507990933954716, -0.019106153398752213, 0.0677374079823494, -0.9975202083587646, 0.0027485638856887817, -0.013324260711669922, 0.003135502338409424, -0.03389358507222563, -0.0095452818343745, 0.9993798426338637,-0.0004046266310754332,-0.0195465087890625,0.06829833984375,-0.993560791015625
20220201-1655,2022-02-01 16:55:35Z,u01, 25,40,movements,el-ex, lt, nd,118765.49309379168, -0.01580372849735767, -0.07141415918455342, -0.0019725642243232275, -0.07587677985429764, 0.14635257422924042, -0.015261366963386536, -0.01576278917491436, 0.0713534727692604, -0.9973265528678894, 0.00352507084608078, -0.006442278623580933, 0.0005919337272644043, -0.03570614844514756, -0.00786153258300964, 0.9993311746317016,-0.0007035330236855875,-0.0230865478515625,0.0601959228515625,-0.987884521484375
20220201-1655,2022-02-01 16:55:35Z,u01, 26,40,movements,el-ex, lt, nd,118765.51804179167, -0.011781855022442422, -0.071614540908883, -0.0021315226959137154, 0.01310768723487854, 0.1824338734149933, -0.0024827206507325172, -0.011751383543014526, 0.07155334204435349, -0.9973675608634949, 0.0012379111722111702, -0.002049259841442108, 0.0025708675384521484, -0.035805253459132234, -0.005848961030262059, 0.999341262115364,-0.0008541678967283195,-0.0157318115234375,0.0508880615234375,-0.9939422607421875
20220201-1655,2022-02-01 16:55:35Z,u01, 27,40,movements,el-ex, lt, nd,118765.54298879167, -0.007170163113135292, -0.07053484942263977, -0.0023052173377854117, -0.05454109609127045, 0.21527045965194702, -0.004188142716884613, -0.00715227285400033, 0.07047637552022934, -0.9974877834320068, -0.0024914508685469627, -0.022700801491737366, 0.01755315065383911, -0.035263994825183394, -0.0035422014357825177, 0.9993712015169162,-0.0010254742734067679,-0.0121307373046875,0.0712738037109375,-0.9979400634765625
20220201-1655,2022-02-01 16:55:35Z,u01, 28,40,movements,el-ex, lt, nd,118765.56793679167, -0.0018917667649471306, -0.07214055568173283, -0.0023764257596613583, -0.1764158457517624, 0.22628375887870789, 0.004989176988601685, -0.001886845100671053, 0.07207799702882767, -0.9973971843719482, -0.0037133004516363144, -0.021189630031585693, 0.014242947101593018, -0.03606353891128992, -0.0009024174803987321, 0.9993484094095975,-0.0011533283506683922,-0.0121612548828125,0.061309814453125,-0.9903717041015625
20220201-1655,2022-02-01 16:55:35Z,u01, 29,40,movements,el-ex, lt, nd,118765.59288379167, 0.0037789608617012057, -0.07683887992287798, -0.0023756184299585574, -0.23213432729244232, 0.2586050033569336, 0.00392531044781208, 0.003767801448702812, 0.07676328718662262, -0.9970422387123108, -0.004118923097848892, -0.004909344017505646, 0.01745849847793579, -0.038407651252778396, 0.001933707331259889, 0.9992594771786553,-0.0012595051354042375,-0.0095672607421875,0.047882080078125,-0.9783477783203125
20220201-1655,2022-02-01 16:55:35Z,u01, 30,40,movements,el-ex, lt, nd,118765.61783179168, 0.010437447991933852, -0.08065264692546864, -0.002514499332941055, -0.1513003408908844, 0.31077367067337036, -0.01773737370967865, 0.010403330437839031, 0.08056523650884628, -0.9966950416564941, -0.00953375082463026, 0.008470095694065094, 0.012487947940826416, -0.04030825599617581, 0.005265138981473613, 0.9991723870923114,-0.0014666038026256434,-0.005615234375,0.0594024658203125,-0.989349365234375
20220201-1655,2022-02-01 16:55:35Z,u01, 31,40,movements,el-ex, lt, nd,118765.64277879168, 0.018235677510652575, -0.08034892386782388, -0.0027205135143912734, -0.0004977695643901825, 0.3237733542919159, 0.010973099619150162, 0.01817583665251732, 0.08026249706745148, -0.9966080188751221, -0.001986432820558548, 0.012785904109477997, 0.014994919300079346, -0.040149557532106986, 0.009164977789285792, 0.9991501428051714,-0.0017253026356915946,0.0004119873046875,0.0799407958984375,-0.97930908203125
20220201-1655,2022-02-01 16:55:35Z,u01, 32,40,movements,el-ex, lt, nd,118765.66772679167, 0.026094599105991496, -0.0797500032263363, -0.002064423631940391, 0.003769613802433014, 0.3012269139289856, 0.039191022515296936, 0.026008710265159607, 0.07966549694538116, -0.9964823126792908, -0.015877043828368187, -0.021300315856933594, 0.014228284358978271, -0.0398475657078919, 0.013077696761532387, 0.9991189558063744,-0.0015514116014010426,0.0075836181640625,0.1042633056640625,-0.98431396484375
20220201-1655,2022-02-01 16:55:36Z,u01, 33,40,movements,el-ex, lt, nd,118765.69267479167, 0.034070352680635185, -0.08117153683109554, -0.0006663609677860126, -0.13212627172470093, 0.3415940999984741, 0.04986850172281265, 0.03395160287618637, 0.08108242601156235, -0.9961289763450623, -0.0076151080429553986, -0.02033688873052597, 0.02644824981689453, -0.04056306967578959, 0.01703384176123835, 0.9990311805386315,-0.0010240204299875044,0.0160675048828125,0.072906494140625,-0.985687255859375
20220201-1655,2022-02-01 16:55:36Z,u01, 34,40,movements,el-ex, lt, nd,118765.71762179167, 0.04357165842577395, -0.08543903462553114, 0.0005965331786021466, -0.17337054014205933, 0.4199676811695099, 0.021987535059452057, 0.043398987501859665, 0.08533512055873871, -0.9954066872596741, -0.005389511585235596, -0.012809798121452332, 0.025558054447174072, -0.04270288118321666, 0.021751496001590757, 0.9988507862935851,-0.0006323997255281988,0.0199737548828125,0.050323486328125,-0.982269287109375
20220201-1655,2022-02-01 16:55:36Z,u01, 35,40,movements,el-ex, lt, nd,118765.74256979168, 0.05489405115514775, -0.08702688485999262, 0.0006302693040507046, 0.07198937982320786, 0.48229169845581055, -0.010079920291900635, 0.05465884506702423, 0.08691707253456116, -0.9947149753570557, -0.0018178299069404602, 0.014844097197055817, 0.005579233169555664, -0.04349196801581785, 0.027403899172821544, 0.998677436780359,-0.000879070112295266,0.0330047607421875,0.067626953125,-0.967926025390625
20220201-1655,2022-02-01 16:55:36Z,u01, 36,40,movements,el-ex, lt, nd,118765.76751679168, 0.06708897812359423, -0.08269790083237018, 7.663067208083959e-05, 0.2313830703496933, 0.4970073103904724, -0.017735376954078674, 0.06680955737829208, 0.08260367065668106, -0.9943405389785767, -0.00977238267660141, 2.2970139980316162e-05, -0.0028060078620910645, -0.0413151989111047, 0.03350794971433585, 0.9985831991414259,-0.001348113223070324,0.0428924560546875,0.088348388671875,-0.975341796875
20220201-1655,2022-02-01 16:55:36Z,u01, 37,40,movements,el-ex, lt, nd,118765.79246479168, 0.07956466523321232, -0.07934099631376315, -0.000911599685542973, -0.00672550592571497, 0.5019656419754028, -0.02949935756623745, 0.07923071086406708, 0.0792577788233757, -0.9937005043029785, -0.005790330469608307, -0.028216823935508728, -0.009198665618896484, -0.0396105938793134, 0.03975860480980917, 0.9984218782923173,-0.0020324352824419023,0.0558929443359375,0.0994415283203125,-0.98907470703125
20220201-1655,2022-02-01 16:55:36Z,u01, 38,40,movements,el-ex, lt, nd,118765.81741179168, 0.09242766413442641, -0.08354562887690972, -0.0012662851936511372, -0.2892416715621948, 0.5300469994544983, -0.028908735141158104, 0.09197419881820679, 0.08344846963882446, -0.992258608341217, -0.011652112007141113, -0.036908864974975586, -0.003362119197845459, -0.04168684650550088, 0.04618348473686919, 0.998059516026086,-0.0025611477916822056,0.063079833984375,0.06561279296875,-1.001556396484375
20220201-1655,2022-02-01 16:55:36Z,u01, 39,40,movements,el-ex, lt, nd,118765.84235979167, 0.10604705773602816, -0.0891664817604808, -0.0014158307140828938, -0.0654015988111496, 0.5574285984039307, -0.03557243198156357, 0.10542789846658707, 0.089048370718956, -0.9904319047927856, -0.009023040533065796, 0.016924217343330383, -0.013947367668151855, -0.04446834075438698, 0.052977513613357875, 0.9976004424555976,-0.003068287448136864,0.0808563232421875,0.043304443359375,-1.0037384033203125
20220201-1655,2022-02-01 16:55:36Z,u01, 40,40,movements,el-ex, lt, nd,118765.86730779168, 0.12015696573171714, -0.08602257863461686, -0.003226784154634432, 0.2305852472782135, 0.5946376323699951, -0.07257798314094543, 0.11942481249570847, 0.08591652661561966, -0.9891188144683838, -0.013315372169017792, 0.05324392765760422, -0.025270164012908936, -0.04282361359224109, 0.06005598542705766, 0.9972672297856122,-0.004190690018048837,0.087921142578125,0.0673065185546875,-0.9936065673828125
20220201-1655,2022-02-01 16:55:36Z,u01, 41,40,movements,el-ex, lt, nd,118765.89225479167, 0.1350569239136278, -0.08449332124915669, -0.005419386242857297, -0.1283566653728485, 0.5986955165863037, -0.07677192986011505, 0.13416637480258942, 0.08439282327890396, -0.9873586893081665, -0.004710987210273743, -0.024593323469161987, -0.0033181309700012207, -0.04195500103117182, 0.06753087522079054, 0.9968192400229114,-0.0055509273515322866,0.1013641357421875,0.1261444091796875,-1.0152587890625
20220201-1655,2022-02-01 16:55:36Z,u01, 42,40,movements,el-ex, lt, nd,118765.91720279168, 0.1500954592869125, -0.09138805600891914, -0.006554277251071815, -0.3193809688091278, 0.6307098865509033, -0.09351549297571182, 0.14890852570533752, 0.09126090258359909, -0.9846307635307312, 0.0021533071994781494, -0.017530128359794617, 0.003444850444793701, -0.04530385784585922, 0.07504791334906241, 0.9961277946100076,-0.006689302165995614,0.109619140625,0.103424072265625,-1.000518798828125
20220201-1655,2022-02-01 16:55:36Z,u01, 43,40,movements,el-ex, lt, nd,118765.94214979168, 0.16627994780213914, -0.09506581856810538, -0.0083121668787995, 0.10482732206583023, 0.6760699152946472, -0.0999976247549057, 0.16476739943027496, 0.09492269158363342, -0.9817542433738708, -0.0010102540254592896, 0.03926340490579605, -0.01037222146987915, -0.04700573312254869, 0.08314650915887063, 0.9953952657034566,-0.008082851616716624,0.143829345703125,0.05108642578125,-0.9860076904296875
20220201-1655,2022-02-01 16:55:36Z,u01, 44,40,movements,el-ex, lt, nd,118765.96709779167, 0.1834929038048806, -0.0889815759344971, -0.01244122405659321, 0.3437916934490204, 0.7136492729187012, -0.12987935543060303, 0.1817430704832077, 0.08886419981718063, -0.9793225526809692, -0.007869347929954529, 0.04718346893787384, -0.004991412162780762, -0.0437188466161241, 0.09180086348818156, 0.9947642954619674,-0.010263003826415207,0.15728759765625,0.11309814453125,-0.9688720703125
20220201-1655,2022-02-01 16:55:36Z,u01, 45,40,movements,el-ex, lt, nd,118765.99204479168, 0.201424019010711, -0.08431123359228962, -0.01692429427545416, 0.0077318307012319565, 0.7409728169441223, -0.15143679082393646, 0.1993541121482849, 0.08421137928962708, -0.9763023853302002, -0.003584042191505432, -0.0315835177898407, 0.016707658767700195, -0.041078051920082646, 0.10080373745219345, 0.9939774371607922,-0.01264868498175964,0.168792724609375,0.1415863037109375,-0.98614501953125
20220201-1655,2022-02-01 16:55:36Z,u01, 46,40,movements,el-ex, lt, nd,118766.01699279167, 0.2196108486690398, -0.0900963468727422, -0.01954357340550294, -0.341810941696167, 0.7253062725067139, -0.15588046610355377, 0.21696625649929047, 0.08997450768947601, -0.9720237851142883, 0.009580820798873901, -0.03594283014535904, 0.00791245698928833, -0.04368985042873875, 0.10990589212265632, 0.9928734384148039,-0.014637621385745148,0.1866455078125,0.092987060546875,-0.9790496826171875
20220201-1655,2022-02-01 16:55:36Z,u01, 47,40,movements,el-ex, lt, nd,118766.04194079168, 0.2374071309871351, -0.09576001221330056, -0.022307405899358042, 0.05198484659194946, 0.7405377626419067, -0.1644296795129776, 0.23410579562187195, 0.09561372548341751, -0.9674980640411377, 0.01386462152004242, 0.06687741726636887, -0.034058332443237305, -0.04620261648655572, 0.1188119802828083, 0.9917001854760098,-0.01672996155338785,0.2143707275390625,0.03948974609375,-0.956207275390625
20220201-1655,2022-02-01 16:55:36Z,u01, 48,40,movements,el-ex, lt, nd,118766.06688779168, 0.2555766494857027, -0.08961300063553347, -0.027820693160283582, 0.48631542921066284, 0.7518871426582336, -0.13308607041835785, 0.2517889738082886, 0.08949311077594757, -0.9636354446411133, 0.0074424147605896, 0.0745849534869194, -0.02197551727294922, -0.042651079311310056, 0.12791855612993686, 0.9906754630167344,-0.019490346293361493,0.244598388671875,0.0998077392578125,-0.9888763427734375
20220201-1655,2022-02-01 16:55:36Z,u01, 49,40,movements,el-ex, lt, nd,118766.09183579167, 0.2738000227912508, -0.07867140516814246, -0.03492245036716621, 0.43929076194763184, 0.7526660561561584, -0.1844465285539627, 0.26955553889274597, 0.0785902813076973, -0.9597725868225098, 0.014028877019882202, 0.0036701560020446777, -0.0011191964149475098, -0.03657066615335024, 0.1370266492081826, 0.9896328861647293,-0.022649646909535026,0.25103759765625,0.181304931640625,-0.9925079345703125
20220201-1655,2022-02-01 16:55:36Z,u01, 50,40,movements,el-ex, lt, nd,118766.11678279168, 0.29128960990565084, -0.07277399377279209, -0.04216928549459141, 0.1913958340883255, 0.7037695646286011, -0.2579288184642792, 0.2864276170730591, 0.07270977646112442, -0.9553389549255371, 0.023401916027069092, 0.018827997148036957, -0.04136514663696289, -0.032928033487817115, 0.1457609861643069, 0.988426578728742,-0.02612457618495284,0.27667236328125,0.10992431640625,-0.9686279296875
20220201-1655,2022-02-01 16:55:36Z,u01, 51,40,movements,el-ex, lt, nd,118766.14173079167, 0.3086561022565742, -0.07355178878931644, -0.04705057224269015, -0.15112929046154022, 0.6851215958595276, -0.1411004662513733, 0.3029571771621704, 0.07348548620939255, -0.9501667022705078, 0.021078258752822876, -0.05673103779554367, 0.03126716613769531, -0.03270713359688951, 0.15442434589262105, 0.9870406932296366,-0.028878042146670002,0.29266357421875,0.07806396484375,-0.96807861328125
20220201-1655,2022-02-01 16:55:36Z,u01, 52,40,movements,el-ex, lt, nd,118766.16667779167, 0.3249623723018413, -0.08004048629216953, -0.0494689460415513, -0.17614814639091492, 0.6672527194023132, -0.18548323214054108, 0.31825095415115356, 0.07995504885911942, -0.9446287751197815, 0.007600277662277222, -0.006865151226520538, 0.02365398406982422, -0.035472899515850656, 0.1625647121786308, 0.9855771630295964,-0.030856916103743248,0.3154449462890625,0.0713958740234375,-0.9843902587890625
20220201-1655,2022-02-01 16:55:36Z,u01, 53,40,movements,el-ex, lt, nd,118766.19162579167, 0.34177681070973703, -0.0810521262533052, -0.05405961924154152, 0.19894064962863922, 0.6998153924942017, -0.17845727503299713, 0.3340613543987274, 0.08096341043710709, -0.9390676021575928, -0.007233530282974243, 0.05375673621892929, -0.001285851001739502, -0.0353179493584361, 0.17093520615480623, 0.9840791323982271,-0.033498356250892425,0.325042724609375,0.0306549072265625,-0.910858154296875
20220201-1655,2022-02-01 16:55:36Z,u01, 54,40,movements,el-ex, lt, nd,118766.21657379168, 0.35857499484065625, -0.07767253235084286, -0.05926719153843904, 0.10594068467617035, 0.6757107377052307, -0.12984786927700043, 0.3498821258544922, 0.07759445905685425, -0.9335746169090271, -0.013761729001998901, 0.0001035928726196289, 0.0032767653465270996, -0.03290762160740654, 0.1792477861086828, 0.982592295069282,-0.03605317891588389,0.32635498046875,0.1263427734375,-0.945709228515625
20220201-1655,2022-02-01 16:55:36Z,u01, 55,40,movements,el-ex, lt, nd,118766.24152079168, 0.37502501551546097, -0.08047735464204728, -0.061336819657074944, -0.22602054476737976, 0.653994083404541, -0.09684504568576813, 0.36511027812957764, 0.08039051294326782, -0.9274868369102478, -0.0015545487403869629, -0.033271074295043945, 0.0370754599571228, -0.03379253292654828, 0.18738899876061796, 0.980984179604678,-0.037597277539220264,0.3303680419921875,0.1082916259765625,-0.94281005859375
20220201-1655,2022-02-01 16:55:36Z,u01, 56,40,movements,el-ex, lt, nd,118766.26646879167, 0.39133638748905186, -0.08702366482687342, -0.0610130691886657, -0.21969398856163025, 0.6651880145072937, -0.08056899905204773, 0.37998074293136597, 0.08691386878490448, -0.9209020733833313, -0.020483851432800293, 0.003693118691444397, 0.03651785850524902, -0.036723610898839805, 0.19544908998371563, 0.9792755556162419,-0.038344505451337996,0.3498077392578125,0.0486297607421875,-0.9127197265625
20220201-1655,2022-02-01 16:55:36Z,u01, 57,40,movements,el-ex, lt, nd,118766.29141579167, 0.40834820165115543, -0.09175847495596365, -0.06103728902786723, -0.1498793363571167, 0.683529257774353, -0.06711357831954956, 0.39542338252067566, 0.0916297659277916, -0.913917064666748, -0.031989723443984985, 0.033950358629226685, 0.04369300603866577, -0.038709153626870926, 0.20382120311426394, 0.9774591298173466,-0.03914346443605837,0.364044189453125,0.0650482177734375,-0.885528564453125
20220201-1655,2022-02-01 16:55:36Z,u01, 58,40,movements,el-ex, lt, nd,118766.31636379167, 0.42510739507120043, -0.09667442422766637, -0.06055273860594116, -0.25578469038009644, 0.6598309278488159, -0.052045613527297974, 0.4104928970336914, 0.09652391076087952, -0.9067407250404358, -0.020325839519500732, 0.02537885308265686, 0.038942813873291016, -0.04083078629278058, 0.21204360455937893, 0.9755976581446009,-0.03974434883270256,0.353363037109375,0.1183624267578125,-0.88140869140625
20220201-1655,2022-02-01 16:55:36Z,u01, 59,40,movements,el-ex, lt, nd,118766.34131079167, 0.44140304885497217, -0.10345599693632115, -0.058312136650219754, -0.25729966163635254, 0.6280401945114136, -0.02011890709400177, 0.42492425441741943, 0.10327154397964478, -0.8993188142776489, -0.0047126710414886475, -0.0035092830657958984, 0.00695425271987915, -0.04405610561190343, 0.2199991906235928, 0.9736948438573694,-0.03972091703835412,0.380584716796875,0.1237335205078125,-0.869293212890625
20220201-1655,2022-02-01 16:55:36Z,u01, 60,40,movements,el-ex, lt, nd,118766.36625879168, 0.4566382192773631, -0.10833128358182259, -0.05719925268734808, -0.09804626554250717, 0.5845986008644104, -0.06082432344555855, 0.4383484721183777, 0.10811951756477356, -0.8922784328460693, -0.0020083487033843994, 0.01889493316411972, -0.01435309648513794, -0.04624970622152838, 0.22742417463907222, 0.9718715181580562,-0.04006164589013139,0.4040679931640625,0.1143341064453125,-0.87115478515625
20220201-1655,2022-02-01 16:55:36Z,u01, 61,40,movements,el-ex, lt, nd,118766.39120679167, 0.47073278145780956, -0.10940076679858873, -0.05899825938334872, 0.05916949361562729, 0.5592712163925171, -0.11511465907096863, 0.45082807540893555, 0.10918267071247101, -0.8859081268310547, 0.023186028003692627, 0.02651403844356537, -0.0006886124610900879, -0.046274694510630765, 0.23431731396939215, 0.970175970911277,-0.04138293493784595,0.4267578125,0.1124725341796875,-0.9037933349609375
20220201-1655,2022-02-01 16:55:36Z,u01, 62,40,movements,el-ex, lt, nd,118766.41615379168, 0.4844216199405621, -0.11057260908154878, -0.06213822928255029, -0.04704802483320236, 0.562415599822998, -0.1288033127784729, 0.4628526270389557, 0.11034742742776871, -0.8795401453971863, 0.0382915735244751, 0.022007592022418976, 0.004997909069061279, -0.04617994661408278, 0.24103389093504718, 0.9684472436592068,-0.04335852314117633,0.456634521484375,0.144805908203125,-0.8968353271484375
20220201-1655,2022-02-01 16:55:36Z,u01, 63,40,movements,el-ex, lt, nd,118766.44110179167, 0.4985573078679405, -0.11358142327340826, -0.06405949488844291, -0.07283031940460205, 0.5956642031669617, -0.12923067808151245, 0.47507795691490173, 0.11333736777305603, -0.8726142048835754, 0.03917354345321655, -0.00672391802072525, 0.019571542739868164, -0.04708974555388065, 0.24794243461480353, 0.966583605569947,-0.044980228249607124,0.48614501953125,0.1407623291015625,-0.884368896484375
20220201-1655,2022-02-01 16:55:36Z,u01, 64,40,movements,el-ex, lt, nd,118766.46604879167, 0.5134934872458422, -0.11717815112931204, -0.06605994204580656, -0.10468126833438873, 0.6310238838195801, -0.1329352706670761, 0.48785459995269775, 0.1169101819396019, -0.8650606274604797, 0.018874317407608032, 0.006701558828353882, 0.02507948875427246, -0.048233730186428264, 0.2552316635823979, 0.9645438431746715,-0.046747890036601236,0.5133209228515625,0.1149749755859375,-0.863525390625
20220201-1655,2022-02-01 16:55:36Z,u01, 65,40,movements,el-ex, lt, nd,118766.49099679168, 0.5302181919819576, -0.12177279105296272, -0.06720348080520001, -0.14660944044589996, 0.7229501008987427, -0.13287568092346191, 0.5019766688346863, 0.1214720606803894, -0.8563083410263062, 0.0045386552810668945, -0.009136565029621124, 0.05215483903884888, -0.04990363978029466, 0.26335423265445307, 0.9621962829720624,-0.04829591469976707,0.5107574462890625,0.113922119140625,-0.8415374755859375
20220201-1655,2022-02-01 16:55:36Z,u01, 66,40,movements,el-ex, lt, nd,118766.51594379167, 0.5490010237013602, -0.12598680116902874, -0.06887057594155525, -0.047364380210638046, 0.7921141386032104, -0.1389261782169342, 0.5176993012428284, 0.12565377354621887, -0.8462851047515869, 0.004212081432342529, 0.02076984941959381, 0.025377511978149414, -0.05124507123540731, 0.2724543772798085, 0.959494430954771,-0.0501277565913944,0.5061798095703125,0.1171112060546875,-0.823638916015625
20220201-1655,2022-02-01 16:55:36Z,u01, 67,40,movements,el-ex, lt, nd,118766.54089179168, 0.5689651857636723, -0.12814759873210874, -0.07160177899339817, -0.005555878393352032, 0.8328779339790344, -0.13856466114521027, 0.534342885017395, 0.12779715657234192, -0.8355510830879211, -0.0002244114875793457, 0.030223160982131958, 0.03193163871765137, -0.051391880700375675, 0.2821052040042488, 0.9565804611423604,-0.052243298690253015,0.5147247314453125,0.123260498046875,-0.811676025390625
20220201-1655,2022-02-01 16:55:36Z,u01, 68,40,movements,el-ex, lt, nd,118766.56583979167, 0.5897191455177067, -0.13089670571215944, -0.07358786895687908, -0.12526929378509521, 0.8410584926605225, -0.12308517098426819, 0.5513700842857361, 0.13052323460578918, -0.8239870667457581, -0.0053345561027526855, 0.011399060487747192, 0.02480792999267578, -0.051869522886617725, 0.2920890504240441, 0.9534490077167377,-0.05411592679791233,0.5316619873046875,0.16644287109375,-0.8229827880859375
20220201-1655,2022-02-01 16:55:36Z,u01, 69,40,movements,el-ex, lt, nd,118766.59078679167, 0.6106953778907479, -0.1359917613872337, -0.07372567506409185, -0.1400035321712494, 0.8226925134658813, -0.10514111816883087, 0.5681429505348206, 0.13557298481464386, -0.8116856217384338, -0.004056215286254883, -0.0029738247394561768, -0.03403282165527344, -0.053702805358446515, 0.3021145319947573, 0.9501393787735242,-0.05548008874239674,0.5412139892578125,0.147918701171875,-0.79376220703125
20220201-1655,2022-02-01 16:55:36Z,u01, 70,40,movements,el-ex, lt, nd,118766.61573479167, 0.6295653236046599, -0.13825221398698986, -0.07569201353827186, 0.12866294384002686, 0.704667329788208, -0.1189461499452591, 0.5831754207611084, 0.13781221210956573, -0.8005712032318115, -0.006133973598480225, 0.031224936246871948, -0.06591451168060303, -0.0539434205918363, 0.3111342470130803, 0.9471043532392771,-0.05726164850396523,0.5500640869140625,0.136077880859375,-0.8201446533203125
20220201-1655,2022-02-01 16:55:36Z,u01, 71,40,movements,el-ex, lt, nd,118766.64068179167, 0.6454334038515579, -0.13397688494598436, -0.08232188502498995, 0.37309595942497253, 0.6318367123603821, -0.09719884395599365, 0.596153974533081, 0.133576437830925, -0.7916803359985352, -0.011132240295410156, 0.032424196600914, -0.05312258005142212, -0.05040804997086744, 0.3187771418667802, 0.9445751318439735,-0.06014868813055746,0.574615478515625,0.1480255126953125,-0.8603057861328125
20220201-1655,2022-02-01 16:55:36Z,u01, 72,40,movements,el-ex, lt, nd,118766.66562979168, 0.6600024143371589, -0.1310623598517255, -0.08757379199895664, 0.03338436409831047, 0.59639573097229, -0.06766485422849655, 0.6078603863716125, 0.13068746030330658, -0.7832154631614685, -0.010295867919921875, -0.022578656673431396, -0.01869499683380127, -0.047737595035683575, 0.3257504987782276, 0.9421776269398168,-0.06252158777124059,0.580596923828125,0.1858978271484375,-0.8733062744140625
20220201-1655,2022-02-01 16:55:37Z,u01, 73,40,movements,el-ex, lt, nd,118766.69057679168, 0.6741475040654517, -0.1335665231026752, -0.08768722537391065, -0.11035129427909851, 0.539125919342041, -0.06738854944705963, 0.6186716556549072, 0.1331697404384613, -0.7742810845375061, -0.019611775875091553, -0.026815682649612427, 0.013294637203216553, -0.04845446955979157, 0.33243290208331916, 0.9397504681282736,-0.06332032400959087,0.5892791748046875,0.141998291015625,-0.8244476318359375
20220201-1655,2022-02-01 16:55:37Z,u01, 74,40,movements,el-ex, lt, nd,118766.71552479167, 0.6876033341876596, -0.13544484885489044, -0.08791326290376189, -0.008313781581819057, 0.5582904815673828, -0.02529682219028473, 0.6288740634918213, 0.1350311040878296, -0.765691876411438, -0.038237035274505615, 0.0017184615135192871, 0.008520126342773438, -0.04887136321576482, 0.3387708025325638, 0.9374123210758096,-0.06406376024923707,0.6056365966796875,0.0744476318359375,-0.7728271484375
20220201-1655,2022-02-01 16:55:37Z,u01, 75,40,movements,el-ex, lt, nd,118766.74047279167, 0.7021114283690998, -0.13533288698246126, -0.08795665115969793, 0.03678392246365547, 0.6134037971496582, 0.0204797200858593, 0.639926016330719, 0.1349201649427414, -0.7564993500709534, -0.03520512580871582, -0.02804732322692871, 0.047224998474121094, -0.04834541074182796, 0.345561918317561, 0.9349331718356342,-0.06441784079932822,0.59368896484375,0.1302490234375,-0.75714111328125
20220201-1655,2022-02-01 16:55:37Z,u01, 76,40,movements,el-ex, lt, nd,118766.76541979167, 0.7178923977509805, -0.13218737812378947, -0.08929172559796154, 0.2034347653388977, 0.6580352783203125, 0.04331299662590027, 0.6520600318908691, 0.1318027526140213, -0.7466229200363159, -0.04422634840011597, -0.015255838632583618, 0.028345823287963867, -0.046130609077434416, 0.35293132311655867, 0.9322569125642036,-0.06487323478240617,0.597625732421875,0.1136322021484375,-0.7259063720703125
20220201-1655,2022-02-01 16:55:37Z,u01, 77,40,movements,el-ex, lt, nd,118766.79036779168, 0.7333497644294593, -0.12991550968448878, -0.09110666796850317, -0.006542845629155636, 0.6016814708709717, 0.01239556074142456, 0.6637212038040161, 0.12955036759376526, -0.736675500869751, -0.039163947105407715, 0.0025605112314224243, 0.0013543963432312012, -0.04424276574322883, 0.3601455570225112, 0.9295296203020895,-0.06566850731973564,0.609710693359375,0.1229705810546875,-0.723388671875
20220201-1655,2022-02-01 16:55:37Z,u01, 78,40,movements,el-ex, lt, nd,118766.81531479167, 0.7478132167887777, -0.13115648510855735, -0.08880662946643378, -0.1685628741979599, 0.5280091762542725, 0.046763453632593155, 0.6741964221000671, 0.13078078627586365, -0.726880669593811, -0.01179736852645874, -0.0020115822553634644, -0.03041309118270874, -0.044765056116617304, 0.36681842317676117, 0.9269284823810077,-0.06514499839543306,0.606781005859375,0.12347412109375,-0.72454833984375
20220201-1655,2022-02-01 16:55:37Z,u01, 79,40,movements,el-ex, lt, nd,118766.84026279168, 0.760254208503175, -0.13298955906088555, -0.08526152640822707, -0.0856701210141182, 0.4332440495491028, 0.045988742262125015, 0.683020830154419, 0.1325978934764862, -0.7182620763778687, 0.03134971857070923, 0.009095504879951477, -0.0307462215423584, -0.04586874263736139, 0.37251178573392824, 0.9246727853309941,-0.06411976419182383,0.645538330078125,0.1242218017578125,-0.7534027099609375
20220201-1655,2022-02-01 16:55:37Z,u01, 80,40,movements,el-ex, lt, nd,118766.86520979168, 0.7694625139627921, -0.13200600895250114, -0.085670389828532, 0.1803865134716034, 0.30052611231803894, -0.02164529636502266, 0.689696192741394, 0.13162295520305634, -0.712035596370697, 0.048356056213378906, 0.04186975955963135, -0.04701298475265503, -0.04504108460591223, 0.37676718516394764, 0.9229728019687974,-0.06433624301301827,0.6927490234375,0.1359405517578125,-0.7559356689453125
20220201-1655,2022-02-01 16:55:37Z,u01, 81,40,movements,el-ex, lt, nd,118766.89015779167, 0.7744364519193485, -0.12873742167591082, -0.09080380760107451, 0.1711978316307068, 0.1631714254617691, -0.0809863805770874, 0.6935263872146606, 0.1283821165561676, -0.708899974822998, 0.02804630994796753, 0.013128191232681274, 0.0047067999839782715, -0.04239750641282755, 0.37914700469260637, 0.9219908485528288,-0.06620372655416468,0.7286834716796875,0.158843994140625,-0.7539825439453125
20220201-1655,2022-02-01 16:55:37Z,u01, 82,40,movements,el-ex, lt, nd,118766.91510425, 0.7782606512418828, -0.1308701760171378, -0.09137025629812646, -0.2335512340068817, 0.1336362361907959, -0.052136823534965515, 0.6960384249687195, 0.13049693405628204, -0.7060459852218628, 0.023947298526763916, -0.03650251030921936, 0.011023283004760742, -0.04314770371881251, 0.3809399905350981, 0.9211628888557231,-0.06694597740770322,0.7357940673828125,0.1692657470703125,-0.73394775390625
20220201-1655,2022-02-01 16:55:37Z,u01, 83,40,movements,el-ex, lt, nd,118766.94005225001, 0.7809812337286846, -0.13599807371122913, -0.08735104572799073, -0.16320176422595978, 0.04357359558343887, -0.017348086461424828, 0.6974765062332153, 0.13557924330234528, -0.7036652565002441, 0.030123412609100342, -0.0028580129146575928, -0.03666079044342041, -0.04619081749680228, 0.3821436574990224, 0.9205762912037764,-0.0661202828657228,0.713134765625,0.1171722412109375,-0.6916961669921875
20220201-1655,2022-02-01 16:55:37Z,u01, 84,40,movements,el-ex, lt, nd,118766.96500025001, 0.7806324979540005, -0.13561009781209335, -0.088192051078228, 0.20158454775810242, -0.06318194419145584, -0.017719130963087082, 0.697268009185791, 0.1351948380470276, -0.7039457559585571, 0.015073120594024658, 0.03672623634338379, -0.031222820281982422, -0.04586268580155025, 0.38199963896136097, 0.9206304411698779,-0.06642632368450338,0.73321533203125,0.0942535400390625,-0.7179412841796875
20220201-1655,2022-02-01 16:55:37Z,u01, 85,40,movements,el-ex, lt, nd,118767.01489525, 0.7717068757896354, -0.1345382838875216, -0.08993671941900339, -0.29486989974975586, -0.2966502904891968, -0.02493942715227604, 0.6910578608512878, 0.13413278758525848, -0.7102447152137756, 0.022824406623840332, -0.03199015557765961, -0.02344381809234619, -0.04533352990985748, 0.3779186782474939, 0.9223105531359806,-0.06682601096577462,0.718597412109375,0.152313232421875,-0.7388763427734375
20220201-1655,2022-02-01 16:55:37Z,u01, 86,40,movements,el-ex, lt, nd,118767.03984225, 0.763066773752729, -0.1395509168527143, -0.08554992305413901, -0.15933533012866974, -0.45302698016166687, 0.004851624369621277, 0.6844222545623779, 0.1390984058380127, -0.7156939506530762, 0.011363089084625244, 0.02470499277114868, -0.08406507968902588, -0.048763115758920526, 0.3738651795883292, 0.9238795072879764,-0.06552619396580425,0.716033935546875,0.1506500244140625,-0.72711181640625
20220201-1655,2022-02-01 16:55:37Z,u01, 87,40,movements,el-ex, lt, nd,118766.98994725001, 0.7771730367935749, -0.13283178691448969, -0.09188194688027954, 0.046033911406993866, -0.17757123708724976, -0.0484263114631176, 0.6950892806053162, 0.13244150578975677, -0.7066187858581543, 0.02332484722137451, -0.008906066417694092, -0.018463730812072754, -0.043992647184041576, 0.3804671624561142, 0.9212760505192253,-0.06752588878197716,0.7148895263671875,0.1063995361328125,-0.717620849609375
20220201-1655,2022-02-01 16:55:37Z,u01, 88,40,movements,el-ex, lt, nd,118767.06479025, 0.7498406222513695, -0.14052353356295197, -0.08439435418983841, 0.003987226635217667, -0.6167625188827515, 0.01645488291978836, 0.6748042702674866, 0.14006151258945465, -0.7245840430259705, 0.0056917667388916016, 0.029936954379081726, -0.03138226270675659, -0.049859389210774395, 0.36772547387025256, 0.9263300766280212,-0.06484321394331913,0.7078399658203125,0.13372802734375,-0.78704833984375
20220201-1655,2022-02-01 16:55:37Z,u01, 89,40,movements,el-ex, lt, nd,118767.08973725, 0.7340658483951416, -0.1417990383310665, -0.08327839732469657, -0.16969051957130432, -0.6706118583679199, -0.007011226378381252, 0.6631703972816467, 0.14132432639598846, -0.7350050806999207, 0.011893510818481445, -0.007702827453613281, 0.007221817970275879, -0.05116431911569144, 0.3603882199824364, 0.9291859924315629,-0.06415579722787046,0.6887664794921875,0.17266845703125,-0.7742919921875
20220201-1655,2022-02-01 16:55:37Z,u01, 90,40,movements,el-ex, lt, nd,118767.11468525001, 0.7162222190622447, -0.14744553382438877, -0.07898422043242884, -0.3369050920009613, -0.825736939907074, -0.03970232605934143, 0.6494160890579224, 0.1469118595123291, -0.7461069822311401, 0.03262108564376831, -0.0064086467027664185, -0.0012533068656921387, -0.0551284945956488, 0.3520047486805623, 0.9322690769098697,-0.06267342132711226,0.6690673828125,0.1456146240234375,-0.7542877197265625
20220201-1655,2022-02-01 16:55:37Z,u01, 91,40,movements,el-ex, lt, nd,118767.13963325, 0.6954564114098603, -0.15440073288130574, -0.07438999282824459, -0.28185734152793884, -0.8799856901168823, -0.018261883407831192, 0.6331136226654053, 0.1537879854440689, -0.7586279511451721, 0.000675201416015625, 0.0032252371311187744, -0.0035486221313476562, -0.059823636075044574, 0.34220922068949344, 0.9357234975224594,-0.06111937126232156,0.6850128173828125,0.1287384033203125,-0.7375946044921875
20220201-1655,2022-02-01 16:55:37Z,u01, 92,40,movements,el-ex, lt, nd,118767.16458025001, 0.674281794556123, -0.15946278801315464, -0.0708161625169924, -0.19032876193523407, -0.8568923473358154, 0.004738240502774715, 0.6164153218269348, 0.1587878316640854, -0.7712448239326477, 0.0020079612731933594, 0.013789355754852295, 0.04036402702331543, -0.06344304914513153, 0.3321935690390174, 0.9391839557156457,-0.059631566193569574,0.6585845947265625,0.1557159423828125,-0.7695465087890625
20220201-1655,2022-02-01 16:55:37Z,u01, 93,40,movements,el-ex, lt, nd,118767.18952825, 0.6536422223209715, -0.1627278558465495, -0.068210601138905, -0.16820603609085083, -0.8505585789680481, -0.013616331852972507, 0.6000485420227051, 0.16201062500476837, -0.7833864092826843, 0.004672348499298096, 0.020042255520820618, 0.039962947368621826, -0.06601676671756876, 0.32241057092636605, 0.9424958749931087,-0.05826354188871535,0.624237060546875,0.161834716796875,-0.741851806640625
20220201-1655,2022-02-01 16:55:37Z,u01, 94,40,movements,el-ex, lt, nd,118767.21447525, 0.6318924346340112, -0.16948360654156652, -0.0645032438120479, -0.4856203496456146, -0.9417647123336792, -0.06988359987735748, 0.5822097063064575, 0.16867338120937347, -0.7953497171401978, 0.0010573267936706543, 0.006345212459564209, 0.04888969659805298, -0.0704257105905764, 0.3120342269625726, 0.9457514106150791,-0.056825411561378325,0.6132659912109375,0.1786041259765625,-0.7368011474609375
20220201-1655,2022-02-01 16:55:37Z,u01, 95,40,movements,el-ex, lt, nd,118767.23942325001, 0.6097287941354455, -0.18530670809509264, -0.05620160353091262, -0.8654954433441162, -0.9611678123474121, -0.12442413717508316, 0.5628413558006287, 0.18424800038337708, -0.8057681322097778, 0.03624904155731201, 0.015169411897659302, 0.05840784311294556, -0.07982209074756534, 0.3012380527443787, 0.948640903062029,-0.05444697071874821,0.5949249267578125,0.182769775390625,-0.746612548828125
20220201-1655,2022-02-01 16:55:37Z,u01, 96,40,movements,el-ex, lt, nd,118767.26437025, 0.5878668607844719, -0.2052576488303442, -0.04683194155904725, -0.7841195464134216, -0.9243828058242798, -0.1583721935749054, 0.5429456233978271, 0.2038194090127945, -0.814657986164093, 0.054618895053863525, 0.04755418002605438, 0.08376199007034302, -0.09128028271620729, 0.2904116082372839, 0.9511196614731743,-0.051964974908479955,0.5772552490234375,0.1816558837890625,-0.7388153076171875
20220201-1655,2022-02-01 16:55:37Z,u01, 97,40,movements,el-ex, lt, nd,118767.28931825001, 0.567345577454749, -0.21960538310495947, -0.04255093330026666, -0.3268926739692688, -0.7914506793022156, -0.19482667744159698, 0.5244890451431274, 0.21784450113773346, -0.8230765461921692, 0.008713901042938232, 0.038976460695266724, 0.04776221513748169, -0.09926046517774254, 0.28037311301851153, 0.953383911844691,-0.050963944090199664,0.6081085205078125,0.2269287109375,-0.7406005859375
20220201-1655,2022-02-01 16:55:37Z,u01, 98,40,movements,el-ex, lt, nd,118767.31426625, 0.5476726143312383, -0.22314647906504914, -0.04605121363552515, 0.21355053782463074, -0.7478103637695312, -0.1730504035949707, 0.5077913403511047, 0.2212991714477539, -0.8325710892677307, 0.04382890462875366, 0.04218988120555878, 0.023015975952148438, -0.10097746835292692, 0.2711420618270786, 0.9558074778073081,-0.05212975766696909,0.5634613037109375,0.2611236572265625,-0.748931884765625
20220201-1655,2022-02-01 16:55:37Z,u01, 99,40,movements,el-ex, lt, nd,118767.33921325, 0.5282071374934606, -0.22031233209434892, -0.05246005880581919, 0.08693516999483109, -0.680057168006897, -0.12576285004615784, 0.491803914308548, 0.2185344099998474, -0.8428354263305664, 0.014955490827560425, -0.03875507414340973, 0.038147926330566406, -0.0992803727973256, 0.26215583691998773, 0.9583932539992719,-0.053851819151895186,0.53985595703125,0.26263427734375,-0.785552978515625
20220201-1655,2022-02-01 16:55:37Z,u01, 100,40,movements,el-ex, lt, nd,118767.36416125, 0.5121899329198071, -0.22526704581909748, -0.052931949354622525, -0.3338111937046051, -0.6070361733436584, -0.10355201363563538, 0.4777050018310547, 0.2233666628599167, -0.8496500849723816, 0.004213124513626099, -0.0745779275894165, 0.025370240211486816, -0.10203113827469576, 0.2544889357661966, 0.9601666148440517,-0.05389798870781526,0.540374755859375,0.2359771728515625,-0.8050384521484375
20220201-1655,2022-02-01 16:55:37Z,u01, 101,40,movements,el-ex, lt, nd,118767.38910825, 0.4974864032131535, -0.2304301645075585, -0.05198732833187663, 0.009654900059103966, -0.5832880735397339, -0.034090980887413025, 0.4646044373512268, 0.22839634120464325, -0.8555570244789124, -0.011220216751098633, 0.006299376487731934, -0.039203107357025146, -0.10502838626825597, 0.2473671596016902, 0.9617359636873751,-0.05331586180025666,0.491729736328125,0.144134521484375,-0.80999755859375
20220201-1655,2022-02-01 16:55:37Z,u01, 102,40,movements,el-ex, lt, nd,118767.41405625001, 0.4816327459943323, -0.2277081678025559, -0.05495848189650072, 0.22831137478351593, -0.6392256021499634, -0.03757592663168907, 0.4512692093849182, 0.22574543952941895, -0.8633626699447632, -0.012136727571487427, 0.027611777186393738, -0.023600220680236816, -0.10377786223250061, 0.23989335706654397, 0.963747321422139,-0.053595009018507334,0.47003173828125,0.19677734375,-0.872650146484375
20220201-1655,2022-02-01 16:55:37Z,u01, 103,40,movements,el-ex, lt, nd,118767.43900325001, 0.4650989205645111, -0.22591668475094287, -0.05642100638039137, -0.11665040254592896, -0.6743728518486023, -0.006232917308807373, 0.4371141791343689, 0.22399984300136566, -0.8710655570030212, -0.0038563311100006104, -0.03492790460586548, -0.00828319787979126, -0.10318141577568848, 0.2319931218145821, 0.965763030470661,-0.053239193885853076,0.443756103515625,0.2562103271484375,-0.88482666015625
20220201-1655,2022-02-01 16:55:37Z,u01, 104,40,movements,el-ex, lt, nd,118767.46395125001, 0.4493926134944652, -0.23201407284532377, -0.05309375411016308, -0.33802738785743713, -0.6342893838882446, 0.00981821957975626, 0.4227783977985382, 0.2299380898475647, -0.8765767812728882, -0.018161296844482422, -0.04490974545478821, 0.0006459951400756836, -0.10692312078173746, 0.2242299066423579, 0.9672836980381776,-0.051483122515955715,0.442291259765625,0.2122344970703125,-0.8915252685546875
20220201-1655,2022-02-01 16:55:37Z,u01, 105,40,movements,el-ex, lt, nd,118767.48889925, 0.434180861314825, -0.23569987196740858, -0.05097874712729559, 0.08138158172369003, -0.6218098402023315, 0.02134944126009941, 0.40903642773628235, 0.23352356255054474, -0.8821314573287964, -0.015802383422851562, 0.020352452993392944, -0.03782093524932861, -0.10932882092185926, 0.2167520871102026, 0.9687943888710426,-0.05003243046881117,0.4219818115234375,0.17803955078125,-0.874114990234375
20220201-1655,2022-02-01 16:55:37Z,u01, 106,40,movements,el-ex, lt, nd,118767.51384625, 0.41837040789614466, -0.22937632140883996, -0.053373694059960924, 0.38288751244544983, -0.6111574172973633, 0.02591995894908905, 0.3956310451030731, 0.2273702174425125, -0.8898195624351501, -0.0029920637607574463, 0.04203924536705017, -0.018597185611724854, -0.10639756425466404, 0.20921227666173883, 0.9707939977531236,-0.04968635486897732,0.3916778564453125,0.223541259765625,-0.8905181884765625
20220201-1655,2022-02-01 16:55:37Z,u01, 107,40,movements,el-ex, lt, nd,118767.53879425001, 0.40247150467762083, -0.2232520243180128, -0.05554363037449503, 0.06469931453466415, -0.6240531802177429, 0.005128194577991962, 0.3819727301597595, 0.221402108669281, -0.897261381149292, -0.007598578929901123, -0.022244110703468323, 0.003752470016479492, -0.10358856798837378, 0.20159050789184244, 0.9727284488587034,-0.04929550466913196,0.3919525146484375,0.27020263671875,-0.91656494140625
20220201-1655,2022-02-01 16:55:37Z,u01, 108,40,movements,el-ex, lt, nd,118767.56374125001, 0.3872947982263875, -0.2247732297443084, -0.05448426496581424, -0.11474378407001495, -0.6212365627288818, 0.01764085702598095, 0.3681841790676117, 0.22288529574871063, -0.902642011642456, 0.008555114269256592, -0.02447497844696045, -0.015830278396606445, -0.10480438092771932, 0.19415211561625195, 0.9741684162546009,-0.04813510905871904,0.3858642578125,0.2213134765625,-0.901885986328125
20220201-1655,2022-02-01 16:55:37Z,u01, 109,40,movements,el-ex, lt, nd,118767.58868925001, 0.3712079229968834, -0.22505944571300182, -0.053744468728442615, 0.11437332630157471, -0.68915855884552, 0.0484829917550087, 0.3535933196544647, 0.22316430509090424, -0.9083883762359619, 0.021452277898788452, 0.017467081546783447, -0.048978567123413086, -0.10539686123582692, 0.1862721357449864, 0.9756994370710579,-0.04695547362616087,0.373748779296875,0.190185546875,-0.902587890625
20220201-1655,2022-02-01 16:55:37Z,u01, 110,40,movements,el-ex, lt, nd,118767.61363625001, 0.353165519905418, -0.22038207798737466, -0.054428313724501604, 0.19039581716060638, -0.7436206340789795, 0.03789219632744789, 0.33750447630882263, 0.2186024785041809, -0.9155892729759216, 0.010334640741348267, 0.005946144461631775, -0.01618868112564087, -0.10346702918457144, 0.17748224889228842, 0.9775911654518604,-0.045935773535504154,0.381500244140625,0.2314910888671875,-0.9532470703125
20220201-1655,2022-02-01 16:55:37Z,u01, 111,40,movements,el-ex, lt, nd,118767.63858425, 0.33432916563061676, -0.21796141875993597, -0.0539600057597523, -0.03094366006553173, -0.7692760229110718, 0.05986427888274193, 0.32037195563316345, 0.21623972058296204, -0.9222809672355652, 0.010713040828704834, -0.02373453974723816, 0.0027253031730651855, -0.10274799898640735, 0.1682330642408547, 0.9793657475373831,-0.044533407159823735,0.3622589111328125,0.231903076171875,-0.9471893310546875
20220201-1655,2022-02-01 16:55:37Z,u01, 112,40,movements,el-ex, lt, nd,118767.66353225001, 0.31572210108778853, -0.22010381093494372, -0.051642423037189446, -0.14433765411376953, -0.7692093253135681, 0.05083230137825012, 0.30301201343536377, 0.21833093464374542, -0.9276396632194519, 0.018536239862442017, -0.020241037011146545, -0.0024293065071105957, -0.1043938395968017, 0.15900345965547463, 0.9808184246005703,-0.04260324957107631,0.3388671875,0.2025299072265625,-0.926361083984375
20220201-1655,2022-02-01 16:55:38Z,u01, 113,40,movements,el-ex, lt, nd,118767.68847925, 0.29724807854696894, -0.22098582639624342, -0.04987738615303309, 0.08641782402992249, -0.7375440001487732, 0.07273580133914948, 0.285767525434494, 0.21919158101081848, -0.9328944087028503, 0.010542690753936768, 0.028748780488967896, 0.0008875727653503418, -0.1053487306535053, 0.14984806992717373, 0.9822320301573807,-0.040833983328408596,0.328643798828125,0.192962646484375,-0.9368438720703125
20220201-1655,2022-02-01 16:55:38Z,u01, 114,40,movements,el-ex, lt, nd,118767.71342725001, 0.2793735988807884, -0.21430182117746654, -0.049864278717047204, 0.3954884111881256, -0.6894979476928711, 0.07879975438117981, 0.2694457471370697, 0.21266527473926544, -0.9392403960227966, 0.008248746395111084, 0.02695903182029724, 0.003922402858734131, -0.10242027064127755, 0.1410315636682009, 0.9839031860103735,-0.03943092825421468,0.3093414306640625,0.230224609375,-0.92559814453125
20220201-1655,2022-02-01 16:55:38Z,u01, 115,40,movements,el-ex, lt, nd,118767.73837425001, 0.26263474501292705, -0.20395074235881025, -0.05041129732442711, 0.3587806820869446, -0.6435641646385193, 0.08991964906454086, 0.254244863986969, 0.20253975689411163, -0.9456940293312073, 0.000424116849899292, -0.016748473048210144, 0.0016633272171020508, -0.09760726475158946, 0.13276222088662998, 0.9855907640828053,-0.038181507719218966,0.288543701171875,0.2440185546875,-0.9339752197265625
20220201-1655,2022-02-01 16:55:38Z,u01, 116,40,movements,el-ex, lt, nd,118767.76332225, 0.2476128264265819, -0.19793396755842774, -0.04960454996316642, 0.11316074430942535, -0.580647885799408, 0.09655112028121948, 0.2403048872947693, 0.19664405286312103, -0.9505707025527954, 0.000982135534286499, -0.02869027853012085, 0.01423037052154541, -0.09497152737473376, 0.12527989976058865, 0.9868837065466031,-0.03668726186561544,0.2650604248046875,0.2217254638671875,-0.940093994140625
20220201-1655,2022-02-01 16:55:38Z,u01, 117,40,movements,el-ex, lt, nd,118767.78826925001, 0.23380232759078337, -0.19483265236174857, -0.04790382863437297, 0.16721493005752563, -0.5802848935127258, 0.10841231048107147, 0.22729472815990448, 0.19360235333442688, -0.954387366771698, 0.009429931640625, 0.018937617540359497, -0.010670006275177002, -0.09379066073670038, 0.11836229773210952, 0.987910738877543,-0.035014335231077554,0.2471771240234375,0.1738739013671875,-0.9383544921875
20220201-1655,2022-02-01 16:55:38Z,u01, 118,40,movements,el-ex, lt, nd,118767.81321725, 0.21950276932916205, -0.1867114026752661, -0.04664884626654579, 0.3948616683483124, -0.5735691785812378, 0.115695521235466, 0.2139599472284317, 0.18562845885753632, -0.9590428471565247, 0.01985028386116028, 0.03821825981140137, -0.014910399913787842, -0.09009068685635875, 0.11118560180700257, 0.9891477319716759,-0.03328877922898754,0.2357940673828125,0.1767425537109375,-0.9645843505859375
20220201-1655,2022-02-01 16:55:38Z,u01, 119,40,movements,el-ex, lt, nd,118767.83816525001, 0.20596443077089718, -0.1795895564667876, -0.04526878585636141, 0.06259730458259583, -0.5474310517311096, 0.11272715777158737, 0.20122216641902924, 0.17862574756145477, -0.963121235370636, 0.021662771701812744, -0.018850669264793396, 0.0036180615425109863, -0.08685897153101552, 0.10437869442646022, 0.9902320480371254,-0.03163802523558917,0.24017333984375,0.217742919921875,-0.97509765625
20220201-1655,2022-02-01 16:55:38Z,u01, 120,40,movements,el-ex, lt, nd,118767.86311225001, 0.19281074238983703, -0.18297204817621326, -0.04218147763908067, -0.29536035656929016, -0.5572308301925659, 0.0771607756614685, 0.1884196698665619, 0.1819528043270111, -0.9650861024856567, 0.020823881030082703, -0.03412538766860962, 0.009947001934051514, -0.08889254582197914, 0.09774997949247125, 0.990788227170941,-0.029695318336306786,0.2284088134765625,0.1988983154296875,-0.9723663330078125
20220201-1655,2022-02-01 16:55:38Z,u01, 121,40,movements,el-ex, lt, nd,118767.88806025001, 0.17999684298780494, -0.18882152289384996, -0.03899612904704396, -0.14154170453548431, -0.5257760882377625, 0.0897400826215744, 0.1758444756269455, 0.1877014935016632, -0.9663575291633606, 0.007291331887245178, 0.013623267412185669, 0.009555160999298096, -0.0921266876459558, 0.09129025176465332, 0.9911638426843065,-0.02780259124468648,0.2201080322265625,0.1426239013671875,-0.961395263671875
20220201-1655,2022-02-01 16:55:38Z,u01, 122,40,movements,el-ex, lt, nd,118767.91300704167, 0.16773525022082025, -0.18888347838608904, -0.03644619264510901, 0.11408919841051102, -0.4885295331478119, 0.10795863717794418, 0.16398052871227264, 0.18776234984397888, -0.9684295058250427, 0.008794546127319336, 0.026440829038619995, 0.007324159145355225, -0.09243470106348813, 0.08509451847721555, 0.9917359074284247,-0.02597537619422302,0.1957550048828125,0.1821441650390625,-0.9671783447265625
20220201-1655,2022-02-01 16:55:38Z,u01, 123,40,movements,el-ex, lt, nd,118767.93795504168, 0.15623406101103884, -0.1835599202220257, -0.03509949204685642, 0.2413196861743927, -0.46529722213745117, 0.05925201624631882, 0.15298520028591156, 0.18253083527088165, -0.9712250232696533, 0.00772017240524292, 0.02753719687461853, -0.01502680778503418, -0.08999389047511777, 0.07930066291994149, 0.9924760011643344,-0.024572830941281876,0.1761932373046875,0.2104644775390625,-0.961761474609375
20220201-1655,2022-02-01 16:55:38Z,u01, 124,40,movements,el-ex, lt, nd,118767.96290204168, 0.14450144828074984, -0.179649473999956, -0.0341475441137278, 0.03017229214310646, -0.5020368695259094, 0.06539779156446457, 0.14168162643909454, 0.17868469655513763, -0.9736519455909729, 0.008861377835273743, 0.000499531626701355, -0.0029715299606323242, -0.08822943330002345, 0.07341389232552642, 0.9931146535188043,-0.02343434850828985,0.16845703125,0.207244873046875,-0.9705047607421875
20220201-1655,2022-02-01 16:55:38Z,u01, 125,40,movements,el-ex, lt, nd,118767.98785004167, 0.13195381883027116, -0.1826149248950392, -0.03221960778881711, -0.265485554933548, -0.5326264500617981, 0.05533697456121445, 0.12938348948955536, 0.1816016286611557, -0.9748234748840332, 0.003245726227760315, -0.019781887531280518, 0.009705066680908203, -0.08991282636463163, 0.06711154487235488, 0.9934419213819069,-0.022017775158988895,0.15472412109375,0.201080322265625,-0.9752197265625
20220201-1655,2022-02-01 16:55:38Z,u01, 126,40,movements,el-ex, lt, nd,118768.01279704168, 0.11905006001882938, -0.1895772870062456, -0.02955897742667794, -0.2661631405353546, -0.5572690367698669, 0.05061718076467514, 0.11664117872714996, 0.18844376504421234, -0.9751327037811279, 0.01275317370891571, -0.011548325419425964, 0.007969677448272705, -0.09359356310688659, 0.0606126625727387, 0.9935560559745111,-0.020316458730021136,0.140838623046875,0.15087890625,-0.971099853515625
20220201-1655,2022-02-01 16:55:38Z,u01, 127,40,movements,el-ex, lt, nd,118768.03774504167, 0.10433484591124645, -0.19450676084536794, -0.028291944801826778, -0.11037713289260864, -0.6350229382514954, 0.013231994584202766, 0.10218179225921631, 0.1932826191186905, -0.9758077263832092, 0.01845400035381317, 0.03816297650337219, -0.004676222801208496, -0.09622423390718572, 0.05326383460321369, 0.9937495617624692,-0.019122165644030298,0.130340576171875,0.1757354736328125,-0.968017578125
20220201-1655,2022-02-01 16:55:38Z,u01, 128,40,movements,el-ex, lt, nd,118768.06269304168, 0.08811843899176554, -0.19569843615483445, -0.02816289123327852, -0.006913923658430576, -0.6643551588058472, 0.00238933227956295, 0.08632462471723557, 0.1944516897201538, -0.9771062135696411, 0.009469866752624512, 0.038824960589408875, 0.027445077896118164, -0.09697144752865744, 0.0452042198827229, 0.9940915180819261,-0.018302493034775102,0.1232757568359375,0.2122955322265625,-0.974212646484375
20220201-1655,2022-02-01 16:55:38Z,u01, 129,40,movements,el-ex, lt, nd,118768.08764004167, 0.07191505476076761, -0.19527558534406142, -0.028085335106844894, 0.04726678878068924, -0.6350661516189575, 0.003958533518016338, 0.07048746198415756, 0.19403688609600067, -0.97845858335495, -0.020179420709609985, 0.005121111869812012, 0.03276467323303223, -0.09690770468361937, 0.03714301796204286, 0.9944466317319756,-0.017470429285715516,0.112518310546875,0.2413787841796875,-0.9668731689453125
20220201-1655,2022-02-01 16:55:38Z,u01, 130,40,movements,el-ex, lt, nd,118768.11258804168, 0.05629703212777315, -0.19357081191813066, -0.0276065001002488, 0.07610312849283218, -0.6347350478172302, 0.029773421585559845, 0.05521642789244652, 0.19236423075199127, -0.9797689318656921, 0.003972232341766357, 0.004672795534133911, 0.015703439712524414, -0.09620023042303427, 0.02934370923607254, 0.9947933282130129,-0.01645226764746449,0.0666351318359375,0.201019287109375,-0.9357147216796875
20220201-1655,2022-02-01 16:55:38Z,u01, 131,40,movements,el-ex, lt, nd,118768.13753504168, 0.04042759197236556, -0.19280055970668827, -0.027202424401530426, -0.024462057277560234, -0.6452550292015076, 0.01950327306985855, 0.03966772183775902, 0.19160830974578857, -0.9806695580482483, -0.00016289949417114258, -0.002429559826850891, 0.016207337379455566, -0.09594884334622569, 0.021425535959213725, 0.9950352912542983,-0.015480165443966354,0.0563812255859375,0.2019500732421875,-0.9561004638671875
20220201-1655,2022-02-01 16:55:38Z,u01, 132,40,movements,el-ex, lt, nd,118768.16248304167, 0.024490125636092736, -0.19436790905863108, -0.02700326767357245, -0.09550809860229492, -0.638226330280304, -0.008676900528371334, 0.024026572704315186, 0.19314637780189514, -0.9808757305145264, -0.006906390190124512, 0.011779442429542542, 0.030451595783233643, -0.09685038939395478, 0.013495806801177328, 0.9951000027713616,-0.0146245217960988,0.0540771484375,0.19146728515625,-0.973724365234375
20220201-1655,2022-02-01 16:55:38Z,u01, 133,40,movements,el-ex, lt, nd,118768.18743004167, 0.00832605094450259, -0.19770934281376046, -0.02689963103513557, -0.14715196192264557, -0.6796397566795349, 0.016372859477996826, 0.008163757622241974, 0.19642381370067596, -0.9804850816726685, 0.036727424710989, 0.02400493621826172, -0.020933866500854492, -0.09862824217008175, 0.005469675116135449, 0.9950137418384352,-0.01379445768705978,0.0269012451171875,0.19464111328125,-0.9568634033203125
20220201-1655,2022-02-01 16:55:38Z,u01, 134,40,movements,el-ex, lt, nd,118768.21237804167, -0.009833692127471481, -0.2007945657727265, -0.026802551612296416, -0.0717494785785675, -0.7727992534637451, 0.004863475449383259, -0.009635962545871735, 0.19944798946380615, -0.9798610210418701, 0.03929887339472771, 0.02461235225200653, -0.019513249397277832, -0.10028405889296244, -0.0035484918599129056, 0.9948696042415845,-0.012840470165535078,0.022705078125,0.2200469970703125,-0.9631500244140625
20220201-1655,2022-02-01 16:55:38Z,u01, 135,40,movements,el-ex, lt, nd,118768.23732604168, -0.02890700850940117, -0.20149302762361523, -0.02695322667191983, -0.004678533412516117, -0.7550766468048096, -0.02122212015092373, -0.028318243101239204, 0.2001323699951172, -0.9793595671653748, -0.005647996440529823, 0.013368889689445496, 0.00038623809814453125, -0.10075032217817957, -0.01302316593348626, 0.9947546675715324,-0.011952976665351833,0.0446929931640625,0.22265625,-0.9953460693359375
20220201-1655,2022-02-01 16:55:38Z,u01, 136,40,movements,el-ex, lt, nd,118768.26227304168, -0.047990810006301864, -0.20108088005718608, -0.027251492417399895, 0.027768423780798912, -0.7715332508087158, -0.003106366377323866, -0.04700580611824989, 0.19972854852676392, -0.9787231087684631, 0.018166527152061462, 0.013009771704673767, -0.0071471333503723145, -0.10065820023932427, -0.022502527946929182, 0.9946040804052957,-0.011144623730859227,-0.0098876953125,0.21710205078125,-1.01104736328125
20220201-1655,2022-02-01 16:55:38Z,u01, 137,40,movements,el-ex, lt, nd,118768.28722104167, -0.06815136494460779, -0.20110406624838695, -0.027095952064659607, -0.05335738882422447, -0.8324716091156006, 0.0033894823864102364, -0.0667262077331543, 0.19975127279758453, -0.9775720238685608, 0.019851036369800568, -0.0011120438575744629, -0.018353819847106934, -0.1007744127130002, -0.03253473889640157, 0.9943264351864433,-0.01005167406036328,-0.0331268310546875,0.21734619140625,-0.9851531982421875
20220201-1655,2022-02-01 16:55:38Z,u01, 138,40,movements,el-ex, lt, nd,118768.31216804168, -0.08894607119776894, -0.20428886205636704, -0.02702329922912776, -0.19244696199893951, -0.8240730166435242, 0.009427402168512344, -0.08698168396949768, 0.20287086069583893, -0.9753345847129822, 0.01949188858270645, 0.0010173767805099487, -0.01810401678085327, -0.10245434518716612, -0.04284627834421109, 0.9937746736141557,-0.008894656109868115,-0.0284423828125,0.2126922607421875,-0.996917724609375
20220201-1655,2022-02-01 16:55:38Z,u01, 139,40,movements,el-ex, lt, nd,118768.33711604167, -0.10913389381871687, -0.21111896602796532, -0.028074464841220965, -0.35291939973831177, -0.786841869354248, -0.03947396203875542, -0.1064990982413292, 0.20955415070056915, -0.9719799160957336, 0.018257349729537964, 0.004023417830467224, 0.004496514797210693, -0.1059576673448733, -0.05275418374443477, 0.9929364873496381,-0.008191914841185255,-0.057159423828125,0.1988677978515625,-0.993133544921875
20220201-1655,2022-02-01 16:55:38Z,u01, 140,40,movements,el-ex, lt, nd,118768.36206304167, -0.12937358625264728, -0.2191264880204518, -0.030446537141979476, -0.23678094148635864, -0.7877116799354553, -0.07152270525693893, -0.12592798471450806, 0.21737708151340485, -0.9679304361343384, 0.027249246835708618, 0.010085970163345337, -0.01217198371887207, -0.11008096904624716, -0.06258562410824822, 0.9919176187764528,-0.008032384216747568,-0.0808258056640625,0.2056732177734375,-0.98919677734375
20220201-1655,2022-02-01 16:55:38Z,u01, 141,40,movements,el-ex, lt, nd,118768.38701104168, -0.14923211743107254, -0.2207653923531502, -0.03233302951098344, 0.14641374349594116, -0.7761684060096741, -0.05678816884756088, -0.145070418715477, 0.21897649765014648, -0.964885413646698, 0.024861514568328857, 0.04371911287307739, -0.010196864604949951, -0.11103558802507049, -0.07230762115899482, 0.9911516397527147,-0.007811809702202577,-0.091796875,0.2201995849609375,-0.9669952392578125
20220201-1655,2022-02-01 16:55:38Z,u01, 142,40,movements,el-ex, lt, nd,118768.41195904167, -0.1685536318580681, -0.21116184234693064, -0.032326905033238505, 0.5979332327842712, -0.7584968209266663, -0.07623384147882462, -0.16403044760227203, 0.20959608256816864, -0.9639312624931335, 0.0164777934551239, 0.04199112951755524, -0.030453383922576904, -0.10635008327049862, -0.0820001509398881, 0.9909160139565215,-0.007145868374255626,-0.1090545654296875,0.2568817138671875,-0.9690399169921875
20220201-1655,2022-02-01 16:55:38Z,u01, 143,40,movements,el-ex, lt, nd,118768.43690604168, -0.18686878538993446, -0.19453633217079142, -0.0311183972895067, 0.6439179182052612, -0.7225223183631897, -0.058234065771102905, -0.18227875232696533, 0.1933116316795349, -0.9640565514564514, 0.021527260541915894, 0.008852362632751465, 0.019293487071990967, -0.09812429277880572, -0.09134188463494007, 0.9909529813986988,-0.006357910456575355,-0.1354827880859375,0.26025390625,-0.9779815673828125
20220201-1655,2022-02-01 16:55:38Z,u01, 144,40,movements,el-ex, lt, nd,118768.46185404167, -0.20377677905351085, -0.18364441049184085, -0.030233578834850117, 0.16867093741893768, -0.6486720442771912, -0.04835586994886398, -0.19896650314331055, 0.18261390924453735, -0.9628418684005737, 0.03072291612625122, -0.028499841690063477, 0.05637836456298828, -0.09273830102653566, -0.0998932728252633, 0.9906507991616672,-0.005649215218958725,-0.161865234375,0.238006591796875,-0.9748687744140625
20220201-1655,2022-02-01 16:55:38Z,u01, 145,40,movements,el-ex, lt, nd,118768.48680104167, -0.2195732296368139, -0.18477402080393704, -0.0316331547394698, -0.1847398579120636, -0.6074537634849548, -0.05404118448495865, -0.21410545706748962, 0.18372440338134766, -0.9593769907951355, 0.02698679268360138, -0.018944457173347473, 0.05439358949661255, -0.09341424605716586, -0.10763497337705927, 0.9897765968608979,-0.005546819006132742,-0.167572021484375,0.1719512939453125,-0.9166717529296875
20220201-1655,2022-02-01 16:55:38Z,u01, 146,40,movements,el-ex, lt, nd,118768.51174904167, -0.23477015545530625, -0.1860546774830327, -0.03314634336223718, 0.12757177650928497, -0.6067026257514954, -0.025041360408067703, -0.22860483825206757, 0.18498310446739197, -0.955782949924469, 0.046841979026794434, 0.01451060175895691, 0.009204089641571045, -0.09417377699408336, -0.11506439422006948, 0.9888686600717354,-0.005509443594481411,-0.17852783203125,0.14739990234375,-0.889251708984375
20220201-1655,2022-02-01 16:55:38Z,u01, 147,40,movements,el-ex, lt, nd,118768.53669604167, -0.2504144903275823, -0.17787573080680147, -0.03093509417674924, 0.5024619102478027, -0.6729692816734314, 0.01915726065635681, -0.24389562010765076, 0.1769392192363739, -0.9535236954689026, 0.052855417132377625, 0.025041669607162476, 0.01719874143600464, -0.09003869275227346, -0.12300887164264908, 0.9883037822985566,-0.004194571390432222,-0.1837615966796875,0.1800384521484375,-0.9367828369140625
20220201-1655,2022-02-01 16:55:38Z,u01, 148,40,movements,el-ex, lt, nd,118768.56164404168, -0.26635311041073795, -0.16759936641315049, -0.0277170634345433, 0.2942402958869934, -0.6294108033180237, 0.014062698930501938, -0.2595267593860626, 0.1668158322572708, -0.951219379901886, 0.023778319358825684, 0.010018572211265564, 0.03990358114242554, -0.08478617227141964, -0.1311549072962669, 0.9877261522209074,-0.0025740685921322726,-0.1750640869140625,0.2168426513671875,-0.9672393798828125
20220201-1655,2022-02-01 16:55:38Z,u01, 149,40,movements,el-ex, lt, nd,118768.58659204167, -0.2815136208084047, -0.16424770110608022, -0.026442583586425077, 0.053849224001169205, -0.6284537315368652, 0.01811409927904606, -0.2740711271762848, 0.16351020336151123, -0.94770747423172, 0.02651241421699524, -0.03356607258319855, -0.0038304924964904785, -0.083061733240126, -0.13873363551222878, 0.9868390401786433,-0.0015386285659370613,-0.21075439453125,0.1939544677734375,-0.9184112548828125
20220201-1655,2022-02-01 16:55:38Z,u01, 150,40,movements,el-ex, lt, nd,118768.61153904167, -0.2966918378225695, -0.16091747693170527, -0.024081428381195712, 0.34484225511550903, -0.661458432674408, 0.08899426460266113, -0.28858113288879395, 0.16022390127182007, -0.9439540505409241, 0.03858098387718201, -0.020285263657569885, -0.020874321460723877, -0.08125731196878497, -0.14635651398890998, 0.9858889096058141,8.65114571113601e-06,-0.2564849853515625,0.1349029541015625,-0.922698974609375
20220201-1655,2022-02-01 16:55:38Z,u01, 151,40,movements,el-ex, lt, nd,118768.63648704167, -0.3129741477985543, -0.15033238201303464, -0.017257007648627466, 0.5916973948478699, -0.7319075465202332, 0.15759970247745514, -0.30441707372665405, 0.14976677298545837, -0.9406912922859192, 0.028003990650177002, -0.031953364610672, 0.01359790563583374, -0.07551600309214368, -0.15476329819915727, 0.9850559768582096,0.0032042272195240695,-0.243072509765625,0.13970947265625,-0.964019775390625
20220201-1655,2022-02-01 16:55:38Z,u01, 152,40,movements,el-ex, lt, nd,118768.66143404167, -0.330107007394522, -0.14240206555552062, -0.010069175305804777, 0.11362694203853607, -0.7213335633277893, 0.19709689915180206, -0.3208632469177246, 0.141921266913414, -0.9364321231842041, 0.005418181419372559, -0.02096456289291382, 0.009704947471618652, -0.0709982673402254, -0.16353342030956278, 0.9839567292325508,0.006735099428523628,-0.2521820068359375,0.156219482421875,-0.95123291015625
20220201-1655,2022-02-01 16:55:38Z,u01, 153,40,movements,el-ex, lt, nd,118768.68638204168, -0.3474412991311613, -0.14823024886167807, -0.006660240563530789, -0.38495826721191406, -0.7235521078109741, 0.21356523036956787, -0.3367592692375183, 0.14768801629543304, -0.9299362301826477, 0.01279979944229126, -0.04795628786087036, -0.030894339084625244, -0.07350638625374942, -0.17212984252311037, 0.9822816903207676,0.009527882845168256,-0.30010986328125,0.1197052001953125,-0.924560546875
20220201-1655,2022-02-01 16:55:39Z,u01, 154,40,movements,el-ex, lt, nd,118768.71132904167, -0.36507889234157054, -0.15841922072924378, -0.0040881661512832245, -0.2066970020532608, -0.7681621313095093, 0.25695836544036865, -0.35255229473114014, 0.15775741636753082, -0.9223987460136414, 0.018354177474975586, -0.018062904477119446, -0.04389446973800659, -0.07818191683745387, -0.18079881165966044, 0.9803298417971528,0.012359836360683663,-0.3273773193359375,0.10186767578125,-0.9298858642578125
20220201-1655,2022-02-01 16:55:39Z,u01, 155,40,movements,el-ex, lt, nd,118768.73627704168, -0.3839732774773888, -0.1612091110462596, 0.0019158640448321, 0.0972108468413353, -0.7997884154319763, 0.25477731227874756, -0.3697502017021179, 0.16051176190376282, -0.9151616096496582, 0.0035848915576934814, 0.00834229588508606, -0.009169936180114746, -0.07885573951850187, -0.19026551535958441, 0.9784248082998079,0.016300730124796936,-0.3268585205078125,0.1172332763671875,-0.9659576416015625
20220201-1655,2022-02-01 16:55:39Z,u01, 156,40,movements,el-ex, lt, nd,118768.76122504167, -0.40270758284341857, -0.16298921560833576, 0.008195424515042639, -0.09812186658382416, -0.7732225060462952, 0.25169500708580017, -0.3867166340351105, 0.1622685194015503, -0.9078100919723511, -0.005953162908554077, -0.022787630558013916, -0.013912200927734375, -0.07894232003980214, -0.19965735066269255, 0.9764700461619842,0.020282007709730987,-0.3365325927734375,0.1651458740234375,-0.954803466796875
20220201-1655,2022-02-01 16:55:39Z,u01, 157,40,movements,el-ex, lt, nd,118768.78617204167, -0.42186354196470494, -0.17189152945866418, 0.011016965040450856, -0.4493100643157959, -0.8112980723381042, 0.24061773717403412, -0.4034270942211151, 0.17104630172252655, -0.8988825082778931, 0.029861271381378174, -0.03550218045711517, 0.006747007369995117, -0.08278713512066768, -0.20905751895394517, 0.974113159280112,0.023338630648583103,-0.3835601806640625,0.1595306396484375,-0.9144134521484375
20220201-1655,2022-02-01 16:55:39Z,u01, 158,40,movements,el-ex, lt, nd,118768.81112004168, -0.44212141608229544, -0.18627216098337523, 0.01106060700577781, -0.5286023020744324, -0.8013824820518494, 0.24574872851371765, -0.42045652866363525, 0.18519683182239532, -0.8882107734680176, 0.01629689335823059, -0.030213013291358948, -0.025729477405548096, -0.0895296132686219, -0.21881281529634514, 0.9713092141599604,0.025763940877449765,-0.384185791015625,0.13482666015625,-0.915130615234375
20220201-1655,2022-02-01 16:55:39Z,u01, 159,40,movements,el-ex, lt, nd,118768.83606704167, -0.46208210865064125, -0.1983225558348333, 0.011666193972975598, -0.2780984342098236, -0.8216763734817505, 0.21311382949352264, -0.437074214220047, 0.19702504575252533, -0.8775803446769714, 0.007066160440444946, 0.02857646346092224, -0.02137577533721924, -0.09503750222156276, -0.2284243644543068, 0.9684979650874567,0.02831963680326155,-0.3845977783203125,0.1490325927734375,-0.9008636474609375
20220201-1655,2022-02-01 16:55:39Z,u01, 160,40,movements,el-ex, lt, nd,118768.86101504168, -0.4819312357384972, -0.20366300691511874, 0.014372949998278574, -0.026590224355459213, -0.8352245092391968, 0.17033879458904266, -0.45391201972961426, 0.20225797593593597, -0.867787778377533, 0.021599888801574707, 0.01826232671737671, -0.02559894323348999, -0.09700992890159346, -0.23810750652480583, 0.9658780895176018,0.03120113939068872,-0.431243896484375,0.1940765380859375,-0.9035491943359375
20220201-1655,2022-02-01 16:55:39Z,u01, 161,40,movements,el-ex, lt, nd,118768.88596204168, -0.50279206483325, -0.20624084073033983, 0.017374915048684863, -0.10881498456001282, -0.8939598202705383, 0.12000357359647751, -0.47166189551353455, 0.20478186011314392, -0.8576709628105164, 0.027646303176879883, -0.011391669511795044, -0.010737121105194092, -0.09754870101658883, -0.24829170418969077, 0.9631621287961711,0.03397502267662289,-0.4340667724609375,0.231903076171875,-0.8987274169921875
20220201-1655,2022-02-01 16:55:39Z,u01, 162,40,movements,el-ex, lt, nd,118768.91090941668, -0.5250760064666873, -0.21369935688672784, 0.016191113272705955, -0.4406513571739197, -0.8545867800712585, 0.10707533359527588, -0.4898762106895447, 0.21207654476165771, -0.8456032276153564, 0.014290183782577515, -0.019083082675933838, 0.012961745262145996, -0.10089974299206997, -0.25887761872606263, 0.9599713012450067,0.035450796254011374,-0.4288787841796875,0.2059783935546875,-0.8894500732421875
20220201-1655,2022-02-01 16:55:39Z,u01, 163,40,movements,el-ex, lt, nd,118768.93585741667, -0.5465414087302846, -0.22560204906275125, 0.012450771505843242, -0.4476270377635956, -0.8284882307052612, 0.13413292169570923, -0.506565272808075, 0.22369319200515747, -0.8326781988143921, 0.028217434883117676, -0.020232200622558594, 0.04195261001586914, -0.10671362896459358, -0.26883656646264076, 0.9565662456461134,0.03633412850436821,-0.45843505859375,0.2025909423828125,-0.849212646484375
20220201-1655,2022-02-01 16:55:39Z,u01, 164,40,movements,el-ex, lt, nd,118768.96080441667, -0.5674117346562485, -0.23385163257684194, 0.012368521781105058, -0.0782042145729065, -0.8365447521209717, 0.2005825787782669, -0.522822380065918, 0.2317260354757309, -0.8203412890434265, 0.05565917491912842, 0.010400742292404175, 0.02268826961517334, -0.11027468311749597, -0.2786912900957789, 0.9532495182786208,0.03855063305284995,-0.4882354736328125,0.1751556396484375,-0.8146820068359375
20220201-1655,2022-02-01 16:55:39Z,u01, 165,40,movements,el-ex, lt, nd,118768.98575241667, -0.5868240887134568, -0.23560681305055614, 0.0173984685675998, 0.11707387119531631, -0.8193280696868896, 0.19945645332336426, -0.5384215712547302, 0.2334330826997757, -0.809698224067688, 0.007140934467315674, 0.016643524169921875, 0.020559608936309814, -0.11000536560193089, -0.2881834420600088, 0.9502963961428024,0.04226070701967374,-0.4714813232421875,0.23046875,-0.7823028564453125
20220201-1655,2022-02-01 16:55:39Z,u01, 166,40,movements,el-ex, lt, nd,118769.01069941667, -0.6053173176228597, -0.23711011334126664, 0.02216628602677882, -0.031080279499292374, -0.7544267773628235, 0.18374840915203094, -0.5531022548675537, 0.23489457368850708, -0.7993137240409851, -0.013914406299591064, -0.0012517273426055908, 0.018094420433044434, -0.10961440597878203, -0.29719998153057514, 0.9473980767212753,0.045756440073773996,-0.49560546875,0.2593841552734375,-0.79534912109375
20220201-1655,2022-02-01 16:55:39Z,u01, 167,40,movements,el-ex, lt, nd,118769.03564741668, -0.6233231007456366, -0.24057035387016729, 0.025603073986323537, 0.026341401040554047, -0.7400620579719543, 0.1870923936367035, -0.5669262409210205, 0.23825658857822418, -0.7885609865188599, -0.004256069660186768, -0.01764470338821411, -0.003171682357788086, -0.11030824509738456, -0.30586207156927747, 0.9443994173252712,0.048888881778994114,-0.55792236328125,0.2507171630859375,-0.790557861328125
20220201-1655,2022-02-01 16:55:39Z,u01, 168,40,movements,el-ex, lt, nd,118769.06059441667, -0.6396208059614068, -0.23954312896992147, 0.03200138231175106, 0.2927014231681824, -0.6648736596107483, 0.15877334773540497, -0.5798479318618774, 0.23725882172584534, -0.7794130444526672, -0.006593227386474609, 0.03869667649269104, 0.009515762329101562, -0.10841823433949428, -0.3139091685911743, 0.9417726171656471,0.052639712622971235,-0.5688934326171875,0.215545654296875,-0.7989501953125
20220201-1655,2022-02-01 16:55:39Z,u01, 169,40,movements,el-ex, lt, nd,118769.08554241668, -0.6529113521527374, -0.23485193961107642, 0.039813734786170576, 0.3450435698032379, -0.5711546540260315, 0.10032548755407333, -0.5908249020576477, 0.23269899189472198, -0.7725135087966919, -0.0037491321563720703, 0.010709524154663086, -0.01642674207687378, -0.1046071757822518, -0.3206252852348141, 0.939727890609008,0.05628756135355473,-0.57562255859375,0.2479400634765625,-0.7810211181640625
20220201-1655,2022-02-01 16:55:39Z,u01, 170,40,movements,el-ex, lt, nd,118769.11049041667, -0.6658374939102759, -0.2289296634968527, 0.04712965515903446, 0.38942015171051025, -0.6005949378013611, 0.05011837184429169, -0.6016016006469727, 0.2269352376461029, -0.7658824324607849, 0.01500791311264038, 0.007668927311897278, -0.03242671489715576, -0.10026386229440347, -0.3271176396818205, 0.9377676338079047,0.05943860548026045,-0.604217529296875,0.2783050537109375,-0.777801513671875
20220201-1655,2022-02-01 16:55:39Z,u01, 171,40,movements,el-ex, lt, nd,118769.13543741667, -0.6789554876077604, -0.22275286081817258, 0.052624616248609694, 0.2385406196117401, -0.5317472219467163, 0.0002311738207936287, -0.612464964389801, 0.2209153026342392, -0.7590013742446899, -0.012748658657073975, 0.01480276882648468, -0.018571078777313232, -0.09606020107505295, -0.33357421405707355, 0.9357882447304344,0.06165238049324534,-0.59124755859375,0.236358642578125,-0.7889862060546875
20220201-1655,2022-02-01 16:55:39Z,u01, 172,40,movements,el-ex, lt, nd,118769.16038541668, -0.6907755701935114, -0.22051823894790798, 0.05441603925036074, 0.059117987751960754, -0.4829255938529968, -0.0021100114099681377, -0.6217064261436462, 0.21873533725738525, -0.7520877122879028, 0.01343005895614624, 0.003356620669364929, 0.013562500476837158, -0.09434475687030276, -0.3391978863688359, 0.9338707741539367,0.06268276020828459,-0.613616943359375,0.2483062744140625,-0.7950439453125
20220201-1655,2022-02-01 16:55:39Z,u01, 173,40,movements,el-ex, lt, nd,118769.18533241667, -0.7022799457627488, -0.21751417183475297, 0.05568115776536743, 0.21070462465286255, -0.46586161851882935, -0.06005074083805084, -0.6307389736175537, 0.21580304205417633, -0.7453840374946594, 0.015138387680053711, 0.037905141711235046, 0.00679779052734375, -0.0923616970659061, -0.3446408411792365, 0.9320324108843413,0.063304812376975,-0.6213226318359375,0.2315826416015625,-0.752838134765625
20220201-1655,2022-02-01 16:55:39Z,u01, 174,40,movements,el-ex, lt, nd,118769.21028041668, -0.7119603925508784, -0.21068698498375588, 0.05985234851515959, 0.3707016408443451, -0.3836063742637634, -0.0473087802529335, -0.6388726830482483, 0.20913174748420715, -0.7403416037559509, -0.004865169525146484, 0.012273579835891724, 0.013123095035552979, -0.08814218075066405, -0.3493711037768238, 0.9305955755759284,0.06451921153530255,-0.599822998046875,0.219390869140625,-0.7498016357421875
20220201-1655,2022-02-01 16:55:39Z,u01, 175,40,movements,el-ex, lt, nd,118769.23522741668, -0.7205310428788877, -0.2036867792824088, 0.06389433483276673, 0.19706420600414276, -0.35733240842819214, -0.07597264647483826, -0.6461443901062012, 0.20228126645088196, -0.7359209656715393, 0.0007280707359313965, -0.012568414211273193, 0.03873181343078613, -0.08389032097565005, -0.35355612336524467, 0.929334471762818,0.06555808859125942,-0.6297149658203125,0.2390594482421875,-0.7319488525390625
20220201-1655,2022-02-01 16:55:39Z,u01, 176,40,movements,el-ex, lt, nd,118769.26017541667, -0.7286224070164506, -0.20136056635919186, 0.06437400414549298, -0.014278030954301357, -0.2913774251937866, -0.023255443200469017, -0.6523893475532532, 0.20000259578227997, -0.7310178279876709, 0.0052945613861083984, -0.047216013073921204, 0.046539247035980225, -0.08245671614855848, -0.3573401257464751, 0.9280037727410574,0.06571093110703849,-0.6419677734375,0.1809539794921875,-0.6962738037109375
20220201-1655,2022-02-01 16:55:39Z,u01, 177,40,movements,el-ex, lt, nd,118769.28512341667, -0.7354155774267607, -0.20384703032637283, 0.06258678344716977, -0.1849142462015152, -0.21682949364185333, 0.06760195642709732, -0.6570045351982117, 0.20243819057941437, -0.7261981964111328, -0.0030144453048706055, -0.08169510960578918, 0.04782307147979736, -0.08371018144503295, -0.36040741580810487, 0.9267120958736378,0.06560314766888709,-0.644866943359375,0.1806488037109375,-0.6844329833984375
20220201-1655,2022-02-01 16:55:39Z,u01, 178,40,movements,el-ex, lt, nd,118769.31007041667, -0.7406283988715465, -0.20849974984610734, 0.06107063517107539, -0.16532769799232483, -0.1657821536064148, 0.10409139096736908, -0.6601384282112122, 0.20699237287044525, -0.72206050157547, -0.011736631393432617, -0.07143299281597137, 0.0430445671081543, -0.08597272153435032, -0.36273741480170907, 0.9255705601832898,0.06594954470675884,-0.6522369384765625,0.145050048828125,-0.6808929443359375
20220201-1655,2022-02-01 16:55:39Z,u01, 179,40,movements,el-ex, lt, nd,118769.33501841668, -0.7434648294653176, -0.213648469961156, 0.060076541293976805, -0.19053249061107635, -0.05312158912420273, 0.1179947555065155, -0.6614537239074707, 0.21202681958675385, -0.7193911075592041, -0.03318744897842407, -0.05957596004009247, 0.04217565059661865, -0.08844711224167902, -0.3639801669712955, 0.9248073844642825,0.06653348208054768,-0.6681060791015625,0.120941162109375,-0.676910400390625
20220201-1655,2022-02-01 16:55:39Z,u01, 180,40,movements,el-ex, lt, nd,118769.35996541668, -0.7433655115366766, -0.21832124634674402, 0.05983491865622234, -0.06027122214436531, 0.053984493017196655, 0.10873321443796158, -0.6607045531272888, 0.2165910303592682, -0.7187196016311646, -0.03395187854766846, -0.03388199210166931, 0.0328981876373291, -0.09066031828635433, -0.3638968488010385, 0.924573837528773,0.0672535476954425,-0.67529296875,0.1465911865234375,-0.6681976318359375
20220201-1655,2022-02-01 16:55:39Z,u01, 181,40,movements,el-ex, lt, nd,118769.38491341667, -0.7396871408437241, -0.2193774783309743, 0.06221762726960499, 0.08848210424184799, 0.18726252019405365, 0.0820615291595459, -0.6579018235206604, 0.2176220566034317, -0.7209756374359131, -0.044582366943359375, -0.023819878697395325, 0.03455913066864014, -0.09084216279787956, -0.3622980608195905, 0.9251013012364447,0.0683769289166968,-0.693695068359375,0.1605224609375,-0.689422607421875
20220201-1655,2022-02-01 16:55:39Z,u01, 182,40,movements,el-ex, lt, nd,118769.40986041668, -0.7340048508748335, -0.21597841506486332, 0.06427745511626436, 0.01852012798190117, 0.26198428869247437, 0.035231299698352814, -0.6542861461639404, 0.21430321037769318, -0.7252473831176758, -0.03390061855316162, -0.012322306632995605, 0.019665896892547607, -0.08908730736614136, -0.3597773617529277, 0.9262479518698898,0.06847198812207975,-0.6966400146484375,0.1959991455078125,-0.6883087158203125
20220201-1655,2022-02-01 16:55:39Z,u01, 183,40,movements,el-ex, lt, nd,118769.43480841667, -0.7275104038980706, -0.21134040250890798, 0.06455866633446922, 0.04544322192668915, 0.34265169501304626, -0.03850390389561653, -0.650216281414032, 0.20977066457271576, -0.7302157878875732, -0.030478358268737793, 0.01845535635948181, -0.011147618293762207, -0.08710238636515666, -0.35679865967651425, 0.9276592431278368,0.06750025308547089,-0.69622802734375,0.19012451171875,-0.69036865234375
20220201-1655,2022-02-01 16:55:39Z,u01, 184,40,movements,el-ex, lt, nd,118769.45975641668, -0.7185854822134025, -0.20761890322537668, 0.06534233856102761, 0.20635458827018738, 0.41523370146751404, -0.0877990797162056, -0.6441828012466431, 0.2061305195093155, -0.736572265625, -0.02978271245956421, 0.026688367128372192, -0.004623293876647949, -0.08553085028989135, -0.35270148226431586, 0.9294190761458527,0.0668306195178851,-0.6799774169921875,0.2078094482421875,-0.7270660400390625
20220201-1655,2022-02-01 16:55:39Z,u01, 185,40,movements,el-ex, lt, nd,118769.48470341667, -0.7074310910798804, -0.20074985446698904, 0.06767505479135678, 0.29107117652893066, 0.44890084862709045, -0.13027623295783997, -0.636832058429718, 0.19940418004989624, -0.744770348072052, -0.019082307815551758, 0.03042401373386383, -0.016505718231201172, -0.08228947537356004, -0.347625185475699, 0.9316618201021772,0.06626714532615399,-0.67669677734375,0.23687744140625,-0.7464599609375
20220201-1655,2022-02-01 16:55:39Z,u01, 186,40,movements,el-ex, lt, nd,118769.50965141668, -0.6959254907576501, -0.1943073184380181, 0.06892741155973593, 0.1553160548210144, 0.4479328393936157, -0.12402839213609695, -0.6290315985679626, 0.19308693706989288, -0.753018319606781, -0.01737654209136963, 0.0052318572998046875, -0.007220149040222168, -0.07943960254148394, -0.3423159081155523, 0.9339408928440723,0.06529516623379988,-0.670074462890625,0.2261810302734375,-0.75250244140625
20220201-1655,2022-02-01 16:55:39Z,u01, 187,40,movements,el-ex, lt, nd,118769.53459841668, -0.6850207412240411, -0.1911140414599401, 0.06767965703648814, 0.00143478624522686, 0.43982598185539246, -0.12344323098659515, -0.6211698651313782, 0.1899527758359909, -0.7603064775466919, -0.012039422988891602, 0.003696829080581665, -0.007927656173706055, -0.07850699031116465, -0.33716970403548446, 0.9359964274397055,0.06374867841266468,-0.6522369384765625,0.2183990478515625,-0.754119873046875
20220201-1655,2022-02-01 16:55:39Z,u01, 188,40,movements,el-ex, lt, nd,118769.55954641667, -0.6743041916969836, -0.19036909125492257, 0.06404284378136638, -0.12641668319702148, 0.48290228843688965, -0.14492063224315643, -0.6130746006965637, 0.1892213374376297, -0.7670298218727112, -0.03159397840499878, 0.007220610976219177, 0.014741182327270508, -0.07910119605746001, -0.33200618030824286, 0.9379405299638668,0.06150020421313898,-0.642181396484375,0.1877899169921875,-0.763397216796875
20220201-1655,2022-02-01 16:55:39Z,u01, 189,40,movements,el-ex, lt, nd,118769.58449341667, -0.662718159138578, -0.19122058938389525, 0.058247328619799824, -0.1942635029554367, 0.5303100347518921, -0.1718987077474594, -0.6040475368499756, 0.19005738198757172, -0.7739540338516235, -0.02931433916091919, -0.0011380016803741455, 0.039228200912475586, -0.08080308304012955, -0.32633396796075226, 0.9399788323813505,0.058453925098957304,-0.638641357421875,0.19384765625,-0.7611236572265625
20220201-1655,2022-02-01 16:55:39Z,u01, 190,40,movements,el-ex, lt, nd,118769.60944141667, -0.6505584432100198, -0.19262294310175562, 0.05212351423076098, -0.15691328048706055, 0.5559523701667786, -0.13972440361976624, -0.5944300293922424, 0.19143398106098175, -0.7810288071632385, 0.0007867813110351562, 0.018054232001304626, 0.014351069927215576, -0.08279997319259, -0.3203588218330406, 0.9420490586570494,0.05529847717426059,-0.6493988037109375,0.18841552734375,-0.7393646240234375
20220201-1655,2022-02-01 16:55:39Z,u01, 191,40,movements,el-ex, lt, nd,118769.63438941668, -0.6365949688507146, -0.1936684682289062, 0.047414214165591606, -0.10973524302244186, 0.6339630484580994, -0.12359176576137543, -0.5833472609519958, 0.1924600601196289, -0.7890913486480713, -0.027416348457336426, -0.03027409315109253, 0.07382047176361084, -0.08441704859065187, -0.31357310963961516, 0.9443373545679755,0.05265713437703198,-0.6119232177734375,0.2005157470703125,-0.743896484375
20220201-1655,2022-02-01 16:55:39Z,u01, 192,40,movements,el-ex, lt, nd,118769.65933641668, -0.6211294421577267, -0.19371807762858106, 0.04271298328117438, -0.12878736853599548, 0.6834957003593445, -0.1744762510061264, -0.5710687041282654, 0.1925087422132492, -0.7980105876922607, -0.029227375984191895, -0.0009038448333740234, 0.07172292470932007, -0.08556489210063292, -0.30606101459850044, 0.9468510457341741,0.04978473663808622,-0.5962677001953125,0.2032928466796875,-0.7569122314453125
20220201-1655,2022-02-01 16:55:39Z,u01, 193,40,movements,el-ex, lt, nd,118769.68428441667, -0.604280238395814, -0.19340508595910513, 0.03797505892183307, -0.003595159389078617, 0.7528610825538635, -0.14486601948738098, -0.5575766563415527, 0.19220159947872162, -0.8075684309005737, -0.01758819818496704, 0.009275749325752258, 0.019223272800445557, -0.0865383908163654, -0.29787058865011745, 0.9495245974495112,0.046766854684410664,-0.60894775390625,0.1629180908203125,-0.71209716796875
20220201-1655,2022-02-01 16:55:40Z,u01, 194,40,movements,el-ex, lt, nd,118769.70923141668, -0.5848653991324256, -0.1904419103416296, 0.036459816228502376, 0.08626306056976318, 0.8328184485435486, -0.08372817188501358, -0.5421057939529419, 0.18929283320903778, -0.8187121152877808, -0.01125425100326538, 0.005684271454811096, 0.027299880981445312, -0.0857942676641208, -0.28858842544267294, 0.9525496688410923,0.04478043740887608,-0.5817108154296875,0.2144622802734375,-0.7568817138671875
20220201-1655,2022-02-01 16:55:40Z,u01, 195,40,movements,el-ex, lt, nd,118769.73417941667, -0.5636828902116455, -0.18735887269065665, 0.035739169451123744, 0.05201423913240433, 0.8500250577926636, -0.12407086789608002, -0.5249524116516113, 0.18626463413238525, -0.8305001258850098, -0.006969034671783447, -0.04866057634353638, 0.048258423805236816, -0.08488948515085848, -0.27846673519568055, 0.9557156198198525,0.04310070867191962,-0.5677947998046875,0.1991729736328125,-0.7936248779296875
20220201-1655,2022-02-01 16:55:40Z,u01, 196,40,movements,el-ex, lt, nd,118769.75912641667, -0.5432568463353162, -0.1862009161422014, 0.03287047625439803, -0.04906544089317322, 0.8471513390541077, -0.12584494054317474, -0.5079914331436157, 0.18512682616710663, -0.8412328958511353, 0.011882305145263672, 0.02259136736392975, 0.005219221115112305, -0.08515506717640992, -0.2685743403463573, 0.9586238142931637,0.04070283478379938,-0.5442047119140625,0.1450347900390625,-0.75274658203125
20220201-1655,2022-02-01 16:55:40Z,u01, 197,40,movements,el-ex, lt, nd,118769.78407441668, -0.5221855091603297, -0.1854086225864184, 0.029510745747820668, -0.009391962550580502, 0.8724843263626099, -0.1393919587135315, -0.490227073431015, 0.18434816598892212, -0.8518762588500977, -0.0069806575775146484, 0.030358552932739258, 0.004555821418762207, -0.08563204494819712, -0.2583195878191976, 0.9615028086473912,0.038087054921348645,-0.51171875,0.1722412109375,-0.8084259033203125
20220201-1655,2022-02-01 16:55:40Z,u01, 198,40,movements,el-ex, lt, nd,118769.80902241668, -0.500492410341415, -0.18254130744812475, 0.02723158665545089, 0.1536126434803009, 0.8871321678161621, -0.1342659741640091, -0.4718850553035736, 0.181529238820076, -0.8627697825431824, -0.012779980897903442, 0.006550893187522888, 0.010963261127471924, -0.08493909032827118, -0.24779119072152894, 0.9644221164444584,0.03570540048835252,-0.493011474609375,0.2303619384765625,-0.8493194580078125
20220201-1655,2022-02-01 16:55:40Z,u01, 199,40,movements,el-ex, lt, nd,118769.83396941668, -0.47889831478212547, -0.17469404203184616, 0.02740154853554472, 0.3841528594493866, 0.8464339375495911, -0.15121467411518097, -0.4537881910800934, 0.17380684614181519, -0.8739951252937317, 0.01537257432937622, 0.06250631809234619, -0.02268749475479126, -0.08150219733851725, -0.2374022574404733, 0.9673909665043251,0.03394631917323493,-0.493499755859375,0.2011566162109375,-0.849609375
20220201-1655,2022-02-01 16:55:40Z,u01, 200,40,movements,el-ex, lt, nd,118769.85891741667, -0.4576244290099982, -0.16509517291993794, 0.027848332117819764, 0.23012062907218933, 0.8472421169281006, -0.18839998543262482, -0.4358106851577759, 0.16434620320796967, -0.8849064111709595, 0.0018964111804962158, 0.053061336278915405, 0.0042455196380615234, -0.07714961402867047, -0.2271447339813244, 0.9702656268484655,0.032215083906637326,-0.4640655517578125,0.1887969970703125,-0.876220703125
20220201-1655,2022-02-01 16:55:40Z,u01, 201,40,movements,el-ex, lt, nd,118769.88386441667, -0.4376659277753417, -0.16156265781718174, 0.02399373350522293, -0.044151671230793, 0.7965869307518005, -0.20755904912948608, -0.4183070957660675, 0.16086071729660034, -0.893947958946228, 0.002520233392715454, 0.016217827796936035, -0.002429485321044922, -0.07616755715267753, -0.217312011477064, 0.9726880483008565,0.029188825760304626,-0.433013916015625,0.235504150390625,-0.8908538818359375
20220201-1655,2022-02-01 16:55:40Z,u01, 202,40,movements,el-ex, lt, nd,118769.90881325, -0.41923736334570955, -0.15860201547954894, 0.019967943605842215, 0.20783290266990662, 0.7434400916099548, -0.1839383989572525, -0.4019549489021301, 0.1579379290342331, -0.9019356369972229, 0.007850825786590576, 0.049612417817115784, -0.02466946840286255, -0.07540903049851165, -0.20819623600350873, 0.9748232937833523,0.026217966634004775,-0.4295806884765625,0.1844635009765625,-0.8768310546875
20220201-1655,2022-02-01 16:55:40Z,u01, 203,40,movements,el-ex, lt, nd,118769.93376025, -0.4003242107760863, -0.148908354213659, 0.01910161636357363, 0.3851069211959839, 0.809657871723175, -0.20578710734844208, -0.38540416955947876, 0.14835865795612335, -0.9107432961463928, -0.0370660126209259, 0.032351478934288025, 0.029166877269744873, -0.07100325356663655, -0.19896457490508218, 0.977133355715875,0.02412329184996098,-0.400115966796875,0.191192626953125,-0.9152984619140625
20220201-1655,2022-02-01 16:55:40Z,u01, 204,40,movements,el-ex, lt, nd,118769.95870825001, -0.37927661108643823, -0.14208016880560742, 0.01553461809725301, -0.0040283226408064365, 0.9006510972976685, -0.2593523859977722, -0.3665178120136261, 0.14160262048244476, -0.9195724129676819, -0.03465113043785095, 0.017180636525154114, 0.06318819522857666, -0.06824528492795376, -0.188564006172248, 0.9794619115487012,0.020988399052261714,-0.4096527099609375,0.2041778564453125,-0.9199676513671875
20220201-1655,2022-02-01 16:55:40Z,u01, 205,40,movements,el-ex, lt, nd,118769.98365625001, -0.3580299184826641, -0.140835411666933, 0.008659165126816533, 0.0442894771695137, 0.8753450512886047, -0.288321852684021, -0.346960186958313, 0.14037030935287476, -0.927315890789032, 0.04068565368652344, 0.042155638337135315, -0.017233550548553467, -0.0684654847215963, -0.17791716478084155, 0.9815174395308917,0.016777946457757265,-0.41705322265625,0.168548583984375,-0.8632049560546875
20220201-1655,2022-02-01 16:55:40Z,u01, 206,40,movements,el-ex, lt, nd,118770.00860325001, -0.3373381382113327, -0.131043367608002, 0.004696941609108619, 0.6287069320678711, 0.8555108308792114, -0.2695399820804596, -0.32813867926597595, 0.13066864013671875, -0.9355483651161194, 0.022337138652801514, 0.08408385515213013, -0.01472318172454834, -0.06415209451382159, -0.16766136809013177, 0.9836651797304782,0.013301431102122008,-0.355499267578125,0.156494140625,-0.8929443359375
20220201-1655,2022-02-01 16:55:40Z,u01, 207,40,movements,el-ex, lt, nd,118770.03355125, -0.3160280424335644, -0.11092536939920314, 0.004027230464200764, 0.7413541078567505, 0.8570228815078735, -0.3146774470806122, -0.3088836669921875, 0.11069802939891815, -0.944635808467865, -0.014175564050674438, 0.000676177442073822, 0.009913027286529541, -0.054427156328454546, -0.1572252248016526, 0.9860037296180779,0.010708434351376306,-0.299102783203125,0.208709716796875,-0.9439544677734375
20220201-1655,2022-02-01 16:55:40Z,u01, 208,40,movements,el-ex, lt, nd,118770.05849825, -0.29550501375507965, -0.09939983211381358, -0.0005714725562716659, -0.002917385194450617, 0.819700300693512, -0.30668583512306213, -0.2897855043411255, 0.09923622757196426, -0.9519330263137817, 0.00832173228263855, -0.02214851975440979, 0.02863907814025879, -0.04918018381292534, -0.147019675270267, 0.9878851519231989,0.007031312091047237,-0.3347930908203125,0.15557861328125,-0.91937255859375
20220201-1655,2022-02-01 16:55:40Z,u01, 209,40,movements,el-ex, lt, nd,118770.08344625, -0.2769399742307779, -0.1018522732517958, -0.009517710355239956, -0.2189314365386963, 0.7454982399940491, -0.3123176097869873, -0.27199655771255493, 0.10167626291513443, -0.9569116234779358, 0.030510783195495605, -0.021246887743473053, -0.029004454612731934, -0.05107231815820665, -0.13760747071191257, 0.9891665627517441,0.0023189334190739652,-0.302642822265625,0.095428466796875,-0.9343109130859375
20220201-1655,2022-02-01 16:55:40Z,u01, 210,40,movements,el-ex, lt, nd,118770.10839325, -0.2598105182872314, -0.09901640662852813, -0.015766550016173105, 0.3693108558654785, 0.6756498217582703, -0.21640126407146454, -0.25563910603523254, 0.09885469079017639, -0.9617049098014832, 0.029274821281433105, 0.056296974420547485, -0.028620898723602295, -0.05008942061571307, -0.12899062663218508, 0.9903789312188231,-0.0013967088464493793,-0.2611541748046875,0.0543212890625,-0.9279632568359375
20220201-1655,2022-02-01 16:55:40Z,u01, 211,40,movements,el-ex, lt, nd,118770.13334125001, -0.2433122914340989, -0.08583196485764885, -0.017698165735688776, 0.41694173216819763, 0.662903368473053, -0.21759948134422302, -0.24003177881240845, 0.08572661131620407, -0.9669724106788635, -0.004826173186302185, -0.013247065246105194, 0.002494990825653076, -0.04365693516692572, -0.12086294653554602, 0.9917023682088693,-0.003569156194762113,-0.22735595703125,0.125885009765625,-0.9858551025390625
20220201-1655,2022-02-01 16:55:40Z,u01, 212,40,movements,el-ex, lt, nd,118770.15828925, -0.22808396052221855, -0.08280134527782708, -0.022263368985991995, -0.24454861879348755, 0.5622161030769348, -0.1698426753282547, -0.22533684968948364, 0.0827067643404007, -0.9707641005516052, 0.01465858519077301, -0.05415727198123932, -0.001861572265625, -0.04238306476712446, -0.11323266293750321, 0.9926438855342188,-0.00634012148960994,-0.238555908203125,0.1261138916015625,-0.9879302978515625
20220201-1655,2022-02-01 16:55:40Z,u01, 213,40,movements,el-ex, lt, nd,118770.18323625001, -0.21617815037142535, -0.09140949488536472, -0.027857558738925405, -0.4211840331554413, 0.4267372786998749, -0.1182570606470108, -0.21360278129577637, 0.09128224849700928, -0.9726465940475464, 0.042505815625190735, -0.023807577788829803, -0.014505445957183838, -0.0469187971781623, -0.10712296673066055, 0.9930981375702889,-0.008904208457234386,-0.234466552734375,0.047210693359375,-0.9585723876953125
20220201-1655,2022-02-01 16:55:40Z,u01, 214,40,movements,el-ex, lt, nd,118770.20818425, -0.2068357614257239, -0.09883634609306668, -0.03173174211549107, -0.23528167605400085, 0.38539591431617737, -0.06915402412414551, -0.20436188578605652, 0.09867551177740097, -0.973909318447113, 0.023011013865470886, 0.014026209712028503, 0.0026264190673828125, -0.05076377335236948, -0.1023151019431613, 0.9933986945953728,-0.01066227511119644,-0.1806488037109375,0.0218353271484375,-1.0001220703125
20220201-1655,2022-02-01 16:55:40Z,u01, 215,40,movements,el-ex, lt, nd,118770.23313125, -0.1973046695942123, -0.10530070551392595, -0.034511830127788974, -0.3480871617794037, 0.409426212310791, -0.052839964628219604, -0.1949412226676941, 0.10510621219873428, -0.9751669764518738, -0.0021872520446777344, -0.011157549917697906, 0.022133588790893555, -0.05405949118250117, -0.0974376153733297, 0.9937003556132543,-0.011964874821142668,-0.169952392578125,0.093292236328125,-0.9793243408203125
20220201-1655,2022-02-01 16:55:40Z,u01, 216,40,movements,el-ex, lt, nd,118770.25807925001, -0.18711863298573175, -0.11611234074203965, -0.03830153933026906, -0.5249435305595398, 0.43733853101730347, -0.06088883802294731, -0.18477597832679749, 0.11585161089897156, -0.9759284257888794, -0.006630435585975647, -0.027579225599765778, 0.01206129789352417, -0.05954520347848129, -0.09214211864635036, 0.9938706054895747,-0.013613992373941453,-0.1899566650390625,0.1199798583984375,-0.9532623291015625
20220201-1655,2022-02-01 16:55:40Z,u01, 217,40,movements,el-ex, lt, nd,118770.28302625, -0.17632052377204677, -0.12753510058522619, -0.041507787496188164, -0.37091121077537537, 0.46538835763931274, -0.02099462039768696, -0.17398375272750854, 0.12718965113162994, -0.9765000939369202, 0.018099799752235413, -0.0008465945720672607, 0.04577511548995972, -0.0652866486377057, -0.08653093680762394, 0.9939941700170603,-0.015020323338795993,-0.20037841796875,0.081756591796875,-0.9554901123046875
20220201-1655,2022-02-01 16:55:40Z,u01, 218,40,movements,el-ex, lt, nd,118770.30797425001, -0.1641939601731304, -0.13395568949411937, -0.042913458643826785, -0.1390935629606247, 0.5380899906158447, -0.011042386293411255, -0.16199283301830292, 0.13355542719364166, -0.9777122735977173, -0.0009254366159439087, 0.01163223385810852, 0.06909722089767456, -0.06844248142581918, -0.08037098128197231, 0.9942861757267019,-0.015847741645587776,-0.1684722900390625,0.106048583984375,-0.9499969482421875
20220201-1655,2022-02-01 16:55:40Z,u01, 219,40,movements,el-ex, lt, nd,118770.33292225, -0.14961521483325269, -0.13383525226479334, -0.043651406800028866, 0.1698617786169052, 0.6370224952697754, -0.05479193106293678, -0.1477247029542923, 0.13343606889247894, -0.9799858331680298, -0.0005298703908920288, 0.058245137333869934, 0.03507012128829956, -0.06829222936561061, -0.0730975862066933, 0.9948433569737002,-0.016717867644936935,-0.1585845947265625,0.1371917724609375,-0.9110565185546875
20220201-1655,2022-02-01 16:55:40Z,u01, 220,40,movements,el-ex, lt, nd,118770.35786925, -0.13312436309917366, -0.12680629020317497, -0.04421676151929308, 0.3226412832736969, 0.6712862849235535, -0.06535123288631439, -0.13166578114032745, 0.12646672129631042, -0.9831939339637756, 0.005429655313491821, 0.04278405010700226, 0.03312075138092041, -0.06467233642855938, -0.06496558818269603, 0.9956305210178082,-0.017800024157436978,-0.167327880859375,0.168853759765625,-0.9150390625
20220201-1655,2022-02-01 16:55:40Z,u01, 221,40,movements,el-ex, lt, nd,118770.38281725, -0.11760786459672305, -0.1209797065314075, -0.04472646752993381, 0.13529670238494873, 0.5772709250450134, -0.026374472305178642, -0.1164793074131012, 0.12068480998277664, -0.9858335256576538, 0.00916406512260437, -0.028521426022052765, 0.011758267879486084, -0.06164516255692676, -0.05729841458734687, 0.9962761003641624,-0.018729955667929732,-0.135223388671875,0.198394775390625,-0.9535064697265625
20220201-1655,2022-02-01 16:55:40Z,u01, 222,40,movements,el-ex, lt, nd,118770.40776425, -0.10412744096875663, -0.1197918956776964, -0.044994506023426376, -0.013380744494497776, 0.507056474685669, -0.007194318808615208, -0.10319449752569199, 0.11950559914112091, -0.9874559640884399, 0.005171865224838257, -0.009825125336647034, -0.014497101306915283, -0.06093246428889748, -0.05058898538851466, 0.996672049737095,-0.01931024324598135,-0.115386962890625,0.131256103515625,-0.9602813720703125
20220201-1655,2022-02-01 16:55:40Z,u01, 223,40,movements,el-ex, lt, nd,118770.43271225001, -0.09185838798792828, -0.11927721050595004, -0.044964927693494666, 0.07568039000034332, 0.4879634380340576, -0.015288264490664005, -0.09107751399278641, 0.1189945861697197, -0.9887088537216187, -0.008257374167442322, 0.022164776921272278, -0.011138498783111572, -0.06055567184885406, -0.04448133607157407, 0.9969789831989463,-0.01968106197710967,-0.1027374267578125,0.0915069580078125,-0.9959716796875
20220201-1655,2022-02-01 16:55:40Z,u01, 224,40,movements,el-ex, lt, nd,118770.45765925001, -0.07989642709727458, -0.11503546211848212, -0.04528335097846556, 0.28485724329948425, 0.47848379611968994, -0.04028322920203209, -0.0792839527130127, 0.11478191614151001, -0.9902217984199524, -0.005707673728466034, 0.05277513712644577, -0.015942692756652832, -0.05832811716634235, -0.03856089487026568, 0.9973461016988473,-0.020289004583372627,-0.092010498046875,0.1295013427734375,-1.0153656005859375
20220201-1655,2022-02-01 16:55:40Z,u01, 225,40,movements,el-ex, lt, nd,118770.50755525, -0.05900971720145156, -0.10199672849391211, -0.046411195378348265, 0.035871922969818115, 0.31892234086990356, -0.009698955342173576, -0.05866897106170654, 0.1018199697136879, -0.9930713176727295, 0.017500579357147217, -0.02262655645608902, -0.018037021160125732, -0.05162398416885082, -0.0282719781227782, 0.9980312839253481,-0.02165983781721531,-0.0945281982421875,0.1560516357421875,-1.0038909912109375
20220201-1655,2022-02-01 16:55:40Z,u01, 226,40,movements,el-ex, lt, nd,118770.48260725, -0.06861974662262077, -0.1067478981999399, -0.04585806883608614, 0.3281269073486328, 0.4303007423877716, -0.04889462888240814, -0.06817562133073807, 0.10654527693986893, -0.9919678568840027, 0.006728306412696838, 0.019248463213443756, -0.03261399269104004, -0.05408854979223114, -0.03302288466903047, 0.9977678566181905,-0.021051358748884308,-0.0693359375,0.1678009033203125,-1.003265380859375
20220201-1655,2022-02-01 16:55:40Z,u01, 227,40,movements,el-ex, lt, nd,118770.53250225, -0.053066621670180725, -0.1043784651038343, -0.04652382162722132, -0.20289836823940277, 0.1714821606874466, 0.01094999723136425, -0.052753038704395294, 0.10418903827667236, -0.9931574463844299, 0.022601492702960968, -0.024827778339385986, -0.03826034069061279, -0.05274931967922032, -0.025273973013306777, 0.9980490890157169,-0.02183637907568703,-0.05633544921875,0.0997772216796875,-1.015869140625
20220201-1655,2022-02-01 16:55:40Z,u01, 228,40,movements,el-ex, lt, nd,118770.55745025001, -0.049165370146182996, -0.1092049487689342, -0.0461445715555207, -0.12137947976589203, 0.13966071605682373, 0.04159778729081154, -0.04885280877351761, 0.10898801684379578, -0.992841899394989, -0.005331326276063919, 0.0019131451845169067, -0.03648543357849121, -0.055110565483315194, -0.023278359318867757, 0.99797317589814,-0.021687780970393478,-0.0242919921875,0.0580902099609375,-1.0059356689453125
20220201-1655,2022-02-01 16:55:40Z,u01, 229,40,movements,el-ex, lt, nd,118770.58239725001, -0.045920039080826175, -0.10990478259650659, -0.04528584872641003, 0.05483828857541084, 0.09368762373924255, 0.035433635115623474, -0.045626942068338394, 0.10968365520238876, -0.9929187893867493, -0.0028046295046806335, 0.013531357049942017, -0.03407394886016846, -0.0554151961730018, -0.021674249282430568, 0.9979999386322675,-0.021340216378615662,-0.0427398681640625,0.0982666015625,-1.03302001953125
20220201-1655,2022-02-01 16:55:40Z,u01, 230,40,movements,el-ex, lt, nd,118770.60734525001, -0.045026986292863384, -0.10873342465060859, -0.044112483911005404, 0.013142208568751812, -0.027026602998375893, 0.04822739213705063, -0.044745948165655136, 0.1085192933678627, -0.9930867552757263, 0.013297401368618011, 0.0020004212856292725, -0.033036231994628906, -0.054808698004881175, -0.021274729488881875, 0.9980536006972627,-0.02079330689551312,-0.0607147216796875,0.12481689453125,-1.0327911376953125
20220201-1655,2022-02-01 16:55:40Z,u01, 231,40,movements,el-ex, lt, nd,118770.63229325, -0.046357044440678626, -0.10921809231984865, -0.0426250122734605, -0.03627637401223183, -0.0708543136715889, 0.07197819650173187, -0.04606432840228081, 0.10900108516216278, -0.9929737448692322, 0.00721527636051178, 0.006996527314186096, -0.010566234588623047, -0.0550480303266364, -0.021973765759712188, 0.9980413192834511,-0.020008681724920707,-0.036529541015625,0.1141815185546875,-1.0284881591796875
20220201-1655,2022-02-01 16:55:40Z,u01, 232,40,movements,el-ex, lt, nd,118770.65724025, -0.0482097493140349, -0.11082966599761133, -0.0409424625063141, -0.02730425074696541, -0.06786850839853287, 0.05750484764575958, -0.0478954091668129, 0.11060291528701782, -0.9927099347114563, -0.0063955411314964294, 0.011101484298706055, 0.0022772550582885742, -0.05585140330814777, -0.022927080399128125, 0.9979930679386508,-0.019097768221161382,-0.0312652587890625,0.1110076904296875,-1.026702880859375
20220201-1655,2022-02-01 16:55:40Z,u01, 233,40,movements,el-ex, lt, nd,118770.68218825001, -0.04957879870606133, -0.11180080135153231, -0.03990830293245337, -0.058688972145318985, -0.07365349680185318, 0.03108835406601429, -0.049249086529016495, 0.11156804114580154, -0.9925357103347778, -0.0073306746780872345, 0.021702513098716736, 0.016690433025360107, -0.05633680327064903, -0.023628768912556837, 0.9979601212551255,-0.018530941969645442,-0.0452117919921875,0.1185302734375,-0.9964599609375
20220201-1655,2022-02-01 16:55:41Z,u01, 234,40,movements,el-ex, lt, nd,118770.70713525, -0.05128033300070625, -0.11387612996980256, -0.03911052965817439, -0.15455850958824158, -0.10307502746582031, 0.032025791704654694, -0.05092586949467659, 0.11363016813993454, -0.9922170639038086, 0.0003580637276172638, 0.007952161133289337, 0.01155000925064087, -0.057378224094664185, -0.024478516423995324, 0.9978890094992463,-0.01805723980323065,-0.056243896484375,0.127685546875,-0.98468017578125
20220201-1655,2022-02-01 16:55:41Z,u01, 235,40,movements,el-ex, lt, nd,118770.73208325001, -0.05395288077876481, -0.11941848095807532, -0.038496662221305857, -0.245065838098526, -0.12114337831735611, 0.0387171134352684, -0.05354264751076698, 0.11913485080003738, -0.991433322429657, 0.009795524179935455, 0.002554289996623993, 0.004449129104614258, -0.060159239636391346, -0.025771982317808487, 0.9977008284810268,-0.017596560624018487,-0.052001953125,0.124786376953125,-0.9818878173828125
20220201-1655,2022-02-01 16:55:41Z,u01, 236,40,movements,el-ex, lt, nd,118770.75703025001, -0.05713782369390783, -0.12870939421538058, -0.038083109334287525, -0.4350534677505493, -0.13388840854167938, 0.038651932030916214, -0.05663437396287918, 0.12835432589054108, -0.9901099801063538, 0.0016262643039226532, -0.0083283931016922, 0.031705498695373535, -0.06481515208423033, -0.027276732767420167, 0.9973768807091978,-0.017156543805756153,-0.0427398681640625,0.1229248046875,-0.992523193359375
20220201-1655,2022-02-01 16:55:41Z,u01, 237,40,movements,el-ex, lt, nd,118770.78197825, -0.06064453430336844, -0.13916785297547257, -0.03783012594134032, -0.4419301152229309, -0.17019633948802948, 0.025217881426215172, -0.060021404176950455, 0.13871906697750092, -0.9885112047195435, 0.012184925377368927, 0.011366665363311768, 0.006898164749145508, -0.07005542993603905, -0.028924402076454376, 0.9969829713806079,-0.016751949885797535,-0.0476837158203125,0.1211700439453125,-0.9735107421875
20220201-1655,2022-02-01 16:55:41Z,u01, 238,40,movements,el-ex, lt, nd,118770.80692625, -0.06488611787372243, -0.14925597049304232, -0.0374236278256515, -0.49458175897598267, -0.2030099481344223, 0.05723573639988899, -0.06411969661712646, 0.14870241284370422, -0.986801028251648, 0.004717059433460236, 0.006311923265457153, 0.004928529262542725, -0.07511168638339347, -0.030947104882795593, 0.9965626753629079,-0.01623075808578578,-0.0500030517578125,0.115020751953125,-0.9669189453125
20220201-1655,2022-02-01 16:55:41Z,u01, 239,40,movements,el-ex, lt, nd,118770.83187325, -0.07014541366340492, -0.16514158887951305, -0.037338485815258095, -0.7583925724029541, -0.23149585723876953, 0.042925041168928146, -0.06913436204195023, 0.16439199447631836, -0.9839693903923035, 0.004101231694221497, -0.029504001140594482, 0.009329557418823242, -0.0830642949223645, -0.03340121199653129, 0.9958604653374163,-0.01570151968538752,-0.050994873046875,0.1656646728515625,-0.9790802001953125
20220201-1655,2022-02-01 16:55:41Z,u01, 240,40,movements,el-ex, lt, nd,118770.85682125001, -0.07652154916701535, -0.18428230504931542, -0.037539967696742026, -0.7404862642288208, -0.27589353919029236, 0.05769799277186394, -0.07515249401330948, 0.18324103951454163, -0.9801912307739258, 0.01118747889995575, -0.006696552038192749, -0.0026730895042419434, -0.09264218776678972, -0.036356793004786794, 0.9949200108992977,-0.015156659921257198,-0.066375732421875,0.126983642578125,-0.9743804931640625
20220201-1655,2022-02-01 16:55:41Z,u01, 241,40,movements,el-ex, lt, nd,118770.88176825001, -0.08404876992193429, -0.203613781546356, -0.037127420416104145, -0.8341211080551147, -0.32881981134414673, 0.08464552462100983, -0.08221562951803207, 0.20220977067947388, -0.9758851528167725, -0.006773799657821655, -0.0165863037109375, 0.014520466327667236, -0.10229971325075339, -0.039902408909442105, 0.9938517745000348,-0.014181233328309617,-0.061065673828125,0.152587890625,-0.977508544921875
20220201-1655,2022-02-01 16:55:41Z,u01, 242,40,movements,el-ex, lt, nd,118770.90671616668, -0.09244086221744569, -0.2272772853010523, -0.03738471299904811, -1.05453360080719, -0.32580000162124634, 0.058510128408670425, -0.08993539214134216, 0.22532565891742706, -0.9701237082481384, -0.008087240159511566, -0.01843145489692688, 0.013123035430908203, -0.11411137664033177, -0.04378072908240045, 0.992413452325446,-0.013312529508138216,-0.0726776123046875,0.19659423828125,-0.9769134521484375
20220201-1655,2022-02-01 16:55:41Z,u01, 243,40,movements,el-ex, lt, nd,118770.93166416668, -0.10040241030569465, -0.25748105074751054, -0.03912883612365676, -1.4773402214050293, -0.28312045335769653, 0.03203297778964043, -0.09692955017089844, 0.254645437002182, -0.9621644020080566, -0.010019473731517792, -0.014380276203155518, 0.03383505344390869, -0.12917246767501955, -0.04724686828126713, 0.9904114893281273,-0.012935678835613529,-0.0948638916015625,0.1885223388671875,-0.955413818359375
20220201-1655,2022-02-01 16:55:41Z,u01, 244,40,movements,el-ex, lt, nd,118770.95661116668, -0.11020907819009368, -0.30187699956002145, -0.04320154012162786, -2.0196683406829834, -0.4064278304576874, 0.03677087649703026, -0.10501255095005035, 0.29731285572052, -0.948987603187561, 0.015290699899196625, -0.05629998445510864, 0.001432180404663086, -0.15127884467400407, -0.051194912971869275, 0.9870783863077633,-0.013041379391579788,-0.101470947265625,0.2317657470703125,-0.9578704833984375
20220201-1655,2022-02-01 16:55:41Z,u01, 245,40,movements,el-ex, lt, nd,118770.98155916667, -0.12233730590770567, -0.35039794632360577, -0.04851495192570746, -1.7678289413452148, -0.3932211697101593, 0.0038526738062500954, -0.11461722105741501, 0.3432716131210327, -0.932216465473175, -0.005545906722545624, 0.015951067209243774, -0.0053291916847229, -0.17538692537302375, -0.05595715711019082, 0.9828195852819256,-0.01318696643913786,-0.0979156494140625,0.2401885986328125,-0.9417724609375
