SessionID,LoggingTime,UID,RecNo,Hertz,Activity,MoveType,Wrist,Side,TimeStamp,DMRoll,DMPitch,DMYaw,DMRotX,DMRotY,DMRotZ,DMGrvX,DMGrvY,DMGrvZ,DMUAccelX,DMUAccelY,DMUAccelZ,DMQuatX,DMQuatY,DMQuatW,DMQuatZ,AccelroX,AceelroY,AceelroZ
20220123-1523,2022-01-23 15:23:30Z,u01, 1,40,movements,el-ex, rt, d,2878.2600228750002, -0.06506997814032614, -0.1474401623556743, -0.004807360096717361, -0.058922842144966125, -0.19074414670467377, 1.0092743635177612, -0.06431858241558075, 0.1469065546989441, -0.9870570302009583, 0.05140960216522217, 0.04477444291114807, 0.029918968677520752, -0.07369211217439933, -0.03226385828099429, 0.9967590007923183,-2.7755575615628914e-17,-0.009307861328125,0.187408447265625,-0.9470367431640625
20220123-1523,2022-01-23 15:23:30Z,u01, 2,40,movements,el-ex, rt, d,2878.2849688750002, -0.06542673928395187, -0.14961768335960246, 0.021511176719465796, 0.015164601616561413, -0.15739011764526367, 1.0727341175079346, -0.06464965641498566, 0.14906010031700134, -0.9867124557495117, 0.038999587297439575, 0.03560185432434082, 0.026629507541656494, -0.07434397787840429, -0.03341758678369418, 0.996585649647018,0.01316395088445968,-0.0248260498046875,0.184356689453125,-0.9592742919921875
20220123-1523,2022-01-23 15:23:30Z,u01, 3,40,movements,el-ex, rt, d,2878.3099148750002, -0.0647999476115443, -0.15061059093463883, 0.04913765472497053, 0.04798486456274986, -0.12351071089506149, 1.1091448068618774, -0.06402156502008438, 0.1500418335199356, -0.986604630947113, 0.042567670345306396, 0.05410557985305786, 0.029787063598632812, -0.07437841003197004, -0.03414000777672534, 0.9962818562110493,0.026920298766685224,-0.0235595703125,0.20159912109375,-0.95819091796875
20220123-1523,2022-01-23 15:23:30Z,u01, 4,40,movements,el-ex, rt, d,2878.334861875, -0.06354540143200109, -0.1516654027205228, 0.07719181245321174, -0.010102672502398491, -0.13062241673469543, 1.1047234535217285, -0.0627736896276474, 0.15108463168144226, -0.9865256547927856, 0.05589193105697632, 0.0655750185251236, 0.02836531400680542, -0.07444315182740097, -0.03457429543135501, 0.9957877123219047,0.040860916608726094,-0.0059356689453125,0.2171173095703125,-0.9584503173828125
20220123-1523,2022-01-23 15:23:30Z,u01, 5,40,movements,el-ex, rt, d,2878.359806125, -0.06319162842947836, -0.15466576465700888, 0.10473417110703609, -0.08006314933300018, -0.17740143835544586, 1.0913041830062866, -0.062395770102739334, 0.1540498584508896, -0.9860909581184387, 0.04762522503733635, 0.07382500171661377, 0.001502394676208496, -0.07546280386824826, -0.035494760388335586, 0.9950199137991252,0.05459787668402466,-0.009063720703125,0.2269744873046875,-0.9830169677734375
20220123-1523,2022-01-23 15:23:30Z,u01, 6,40,movements,el-ex, rt, d,2878.3847531250003, -0.06389380262813352, -0.15778677610358183, 0.13230465954186996, -0.046250924468040466, -0.49793803691864014, 1.3064299821853638, -0.06305715441703796, 0.15713286399841309, -0.9855623245239258, -0.017036259174346924, 0.09405742585659027, 0.004269599914550781, -0.0764941730262541, -0.036979578178455694, 0.9940350597626258,0.06837670576937588,-0.17584228515625,0.2650909423828125,-0.9625396728515625
20220123-1523,2022-01-23 15:23:30Z,u01, 7,40,movements,el-ex, rt, d,2878.4096991250003, -0.06528749151639253, -0.15913532611045972, 0.16008261993617176, 0.013811116106808186, -0.21000313758850098, 1.0822083950042725, -0.0644167810678482, 0.15846452116966248, -0.9852611422538757, 0.05274377763271332, 0.08050347864627838, 0.017411410808563232, -0.07658571315837806, -0.03878233339872676, 0.9929078294387905,0.08224632857753353,0.023681640625,0.2301788330078125,-0.9725341796875
20220123-1523,2022-01-23 15:23:30Z,u01, 8,40,movements,el-ex, rt, d,2878.434646125, -0.06593620063220575, -0.15999106376277053, 0.1875475751589384, 0.0624944344162941, -0.18798185884952545, 1.1085416078567505, -0.06504695117473602, 0.15930938720703125, -0.9850834608078003, 0.03942742198705673, 0.0657731145620346, 0.03276717662811279, -0.07643933875019453, -0.04019080674015205, 0.9916365780320517,0.09590869810070116,-0.0249176025390625,0.223297119140625,-0.9519805908203125
20220123-1523,2022-01-23 15:23:30Z,u01, 9,40,movements,el-ex, rt, d,2878.459592125, -0.06563487563464497, -0.16045749969690354, 0.21569578529165906, 0.037700898945331573, -0.15990129113197327, 1.1139631271362305, -0.06474523991346359, 0.15976984798908234, -0.9850287437438965, 0.0811179056763649, 0.08517958223819733, 0.04701000452041626, -0.07611374552919986, -0.041137819632946014, 0.9901754638572394,0.10984927760331242,0.0098419189453125,0.2403106689453125,-0.9369964599609375
20220123-1523,2022-01-23 15:23:30Z,u01, 10,40,movements,el-ex, rt, d,2878.484539125, -0.06488406225528935, -0.16110038579591165, 0.24410633153528036, 0.07304175198078156, -0.14966082572937012, 1.1349159479141235, -0.06399897485971451, 0.16040444374084473, -0.9849743843078613, 0.09779717773199081, 0.08686432242393494, 0.040028154850006104, -0.07588617426028452, -0.041881906799920904, 0.988504118190406,0.12388224501586242,0.034912109375,0.246734619140625,-0.9463348388671875
20220123-1523,2022-01-23 15:23:30Z,u01, 11,40,movements,el-ex, rt, d,2878.509485125, -0.06405642724612601, -0.15994279112856333, 0.2732957277533681, 0.15797847509384155, -0.17056451737880707, 1.1629084348678589, -0.06319560110569, 0.15926173329353333, -0.9852116703987122, 0.12313210964202881, 0.09328660368919373, 0.014279663562774658, -0.07475262097368905, -0.042499594734468814, 0.986656995493992,0.13825232261447248,0.0547943115234375,0.257293701171875,-0.9674072265625
20220123-1523,2022-01-23 15:23:30Z,u01, 12,40,movements,el-ex, rt, d,2878.534431125, -0.06377550380190179, -0.15776352686446665, 0.3030533008091481, 0.11470713466405869, -0.17916178703308105, 1.1861727237701416, -0.0629407986998558, 0.15710990130901337, -0.985573410987854, 0.12193125486373901, 0.06629413366317749, 0.010155320167541504, -0.0730598839610653, -0.043307642913005484, 0.9845876098248955,0.15288513504627424,0.057861328125,0.222564697265625,-0.974334716796875
20220123-1523,2022-01-23 15:23:30Z,u01, 13,40,movements,el-ex, rt, d,2878.559378125, -0.06377798375365984, -0.1587711441878794, 0.3335105773463044, -0.060937389731407166, -0.18973161280155182, 1.218295693397522, -0.06293311715126038, 0.15810492634773254, -0.9854147434234619, 0.10329261422157288, 0.03211124241352081, 0.02347022294998169, -0.07288693619325443, -0.044498464722273395, 0.9821033587510933,0.16787002705245735,0.0435791015625,0.1900482177734375,-0.967559814453125
20220123-1523,2022-01-23 15:23:30Z,u01, 14,40,movements,el-ex, rt, d,2878.584324125, -0.06331910653190369, -0.1636473630813912, 0.3641359421392042, -0.138462632894516, -0.16876502335071564, 1.2352415323257446, -0.06243140250444412, 0.16291791200637817, -0.9846624135971069, 0.10723119974136353, 0.04566983878612518, 0.024594664573669434, -0.0746289392621667, -0.045818269422274245, 0.9792213201029211,0.18291195433070728,0.0443267822265625,0.208709716796875,-0.960662841796875
20220123-1523,2022-01-23 15:23:30Z,u01, 15,40,movements,el-ex, rt, d,2878.6092711250003, -0.06197848271793316, -0.1685485055249461, 0.39527951913229653, -0.11504103243350983, -0.15340596437454224, 1.2286614179611206, -0.06106109544634819, 0.16775159537792206, -0.9839364290237427, 0.0803787112236023, 0.0324438214302063, 0.01851290464401245, -0.0764339133616618, -0.04679348429508003, 0.9760716643283656,0.1981220968364145,0.023284912109375,0.1991424560546875,-0.9591064453125
20220123-1523,2022-01-23 15:23:30Z,u01, 16,40,movements,el-ex, rt, d,2878.6342171250003, -0.06056054278572195, -0.17399543749804677, 0.4258094019118963, -0.14962340891361237, -0.15227872133255005, 1.2126530408859253, -0.059609681367874146, 0.17311882972717285, -0.9830954074859619, 0.04882172495126724, 0.03144058585166931, -0.01167076826095581, -0.07851422340386406, -0.04783116304312631, 0.9727224728791557,0.21297549721416367,-0.0150604248046875,0.203460693359375,-0.996917724609375
20220123-1523,2022-01-23 15:23:30Z,u01, 17,40,movements,el-ex, rt, d,2878.659164125, -0.05878349705890869, -0.17829515726634013, 0.4560479950267517, -0.009529227390885353, -0.13287292420864105, 1.1965546607971191, -0.05781831964850426, 0.17735201120376587, -0.982447624206543, -0.0037203729152679443, 0.034943610429763794, -0.03696155548095703, -0.08007079997762355, -0.04862986098488044, 0.9692362030781704,0.227606850504507,-0.063201904296875,0.2100067138671875,-1.0171051025390625
20220123-1523,2022-01-23 15:23:30Z,u01, 18,40,movements,el-ex, rt, d,2878.684110125, -0.056256077637043, -0.1777522971978156, 0.48607272856520695, 0.16333280503749847, -0.10309752076864243, 1.1656718254089355, -0.0553404837846756, 0.17681773006916046, -0.9826865792274475, 0.03997489809989929, 0.0398571640253067, -0.016458868980407715, -0.07937520328919365, -0.048541590749831186, 0.9657976797587058,0.24202915604972006,-0.012237548828125,0.214813232421875,-0.99859619140625
20220123-1523,2022-01-23 15:23:30Z,u01, 19,40,movements,el-ex, rt, d,2878.709057125, -0.053835602716663565, -0.17548402735451984, 0.515552581144892, 0.13028916716575623, -0.12933218479156494, 1.1541931629180908, -0.052983202040195465, 0.1745847463607788, -0.9832156300544739, 0.08530133217573166, 0.01685212552547455, -0.010513007640838623, -0.07786848122388754, -0.04825653514938533, 0.9622892449370671,0.2561388595565867,0.0309906005859375,0.1984710693359375,-0.9984130859375
20220123-1523,2022-01-23 15:23:30Z,u01, 20,40,movements,el-ex, rt, d,2878.734003125, -0.05220494068688579, -0.17500145390718358, 0.5452271256520758, 0.042316026985645294, -0.1542242169380188, 1.1764644384384155, -0.051384229212999344, 0.1741095632314682, -0.9833847284317017, 0.09195736050605774, 0.010659217834472656, -0.00422513484954834, -0.07713281400192085, -0.04856095205466567, 0.958445104908107,0.27032453203335793,0.04180908203125,0.185394287109375,-0.9868316650390625
20220123-1523,2022-01-23 15:23:30Z,u01, 21,40,movements,el-ex, rt, d,2878.758949125, -0.05109017248459026, -0.1756790955882095, 0.5749082128835267, 0.03883950412273407, -0.16356399655342102, 1.1640433073043823, -0.050281915813684464, 0.1747768223285675, -0.983323335647583, 0.10448116064071655, 0.024503052234649658, -0.003081023693084717, -0.07688603183522924, -0.049263257289932735, 0.9543245686350154,0.2844753276075658,0.057830810546875,0.2011566162109375,-0.9881591796875
20220123-1523,2022-01-23 15:23:30Z,u01, 22,40,movements,el-ex, rt, d,2878.783896125, -0.04964091826649184, -0.17583957833840763, 0.6038945216972313, 0.04838886484503746, -0.13646113872528076, 1.1222361326217651, -0.048855386674404144, 0.17493483424186707, -0.9833671450614929, 0.07107220590114594, 0.018943428993225098, 0.006240129470825195, -0.07645646511262517, -0.0497074793755313, 0.9501304765126961,0.29822067339444264,0.0203704833984375,0.1930389404296875,-0.97747802734375
20220123-1523,2022-01-23 15:23:30Z,u01, 23,40,movements,el-ex, rt, d,2878.808842125, -0.04851401123715909, -0.17617469326920795, 0.6321031740689615, 0.01713434047996998, -0.17597006261348724, 1.1047892570495605, -0.04774434491991997, 0.17526477575302124, -0.9833629727363586, 0.09384117275476456, 0.004026100039482117, -0.028401553630828857, -0.07608205462962071, -0.05029945007965728, 0.9458431260995414,0.31154805874625235,0.046112060546875,0.1773834228515625,-1.008697509765625
20220123-1523,2022-01-23 15:23:30Z,u01, 24,40,movements,el-ex, rt, d,2878.8337891250003, -0.048339842001215494, -0.1771485786372655, 0.6599752548796194, 0.021371830254793167, -0.19722793996334076, 1.0913020372390747, -0.047564804553985596, 0.1762235015630722, -0.9832003116607666, 0.07086500525474548, -0.0063930898904800415, -0.020492255687713623, -0.07586106279984246, -0.05142896407773459, 0.9413698228895526,0.324689273739781,0.021728515625,0.169586181640625,-1.004425048828125
20220123-1523,2022-01-23 15:23:30Z,u01, 25,40,movements,el-ex, rt, d,2878.8587351250003, -0.04818693052661592, -0.17756006640239344, 0.6873226736003022, 0.060973335057497025, -0.17478568851947784, 1.0664678812026978, -0.047410961240530014, 0.17662853002548218, -0.9831350445747375, 0.0695820152759552, 0.005195304751396179, -0.016315579414367676, -0.0753696210864839, -0.05245842210639428, 0.9368273739579001,0.3375233165775188,0.0232391357421875,0.1792449951171875,-1.0006256103515625
20220123-1523,2022-01-23 15:23:30Z,u01, 26,40,movements,el-ex, rt, d,2878.883682125, -0.047447033410079, -0.1766407473011561, 0.7137896116642818, 0.08805904537439346, -0.15678717195987701, 1.017002820968628, -0.04669121280312538, 0.1757235825061798, -0.9833316802978516, 0.05918818712234497, 0.010357439517974854, -0.015417098999023438, -0.07436904775218858, -0.0529472894235983, 0.9323404646217794,0.34986724778150863,0.012420654296875,0.1859588623046875,-1.0003509521484375
20220123-1523,2022-01-23 15:23:30Z,u01, 27,40,movements,el-ex, rt, d,2878.908628125, -0.04720739371715213, -0.17486341037504827, 0.7395834717773161, 0.1434260457754135, -0.18338975310325623, 1.0085619688034058, -0.04647023230791092, 0.17397363483905792, -0.9836532473564148, 0.046882256865501404, -0.018928974866867065, -0.040058910846710205, -0.0728975491041901, -0.053472695048060265, 0.927837480043756,0.3618620305378611,0.0052490234375,0.1582794189453125,-1.0213775634765625
20220123-1523,2022-01-23 15:23:31Z,u01, 28,40,movements,el-ex, rt, d,2878.933574125, -0.04742500212333965, -0.1725679113297779, 0.7653319210196207, 0.13351833820343018, -0.19367235898971558, 1.0167633295059204, -0.04670308902859688, 0.17171268165111542, -0.9840394258499146, 0.02990320324897766, -0.01604241132736206, -0.04750049114227295, -0.07110113243634561, -0.054082533023873114, 0.9231985945904243,0.3737967642050454,-0.0173797607421875,0.155548095703125,-1.032318115234375
20220123-1523,2022-01-23 15:23:31Z,u01, 29,40,movements,el-ex, rt, d,2878.958521125, -0.04749690575417681, -0.17054003680337856, 0.791475543839189, 0.09923343360424042, -0.18282856047153473, 1.0319180488586426, -0.04679028317332268, 0.1697145700454712, -0.9843818545341492, 0.04955216497182846, -0.025274798274040222, -0.023598432540893555, -0.0694415856153718, -0.0546529097905579, 0.9183210285972211,0.3858462424061374,0.0020904541015625,0.1404571533203125,-1.010406494140625
20220123-1523,2022-01-23 15:23:31Z,u01, 30,40,movements,el-ex, rt, d,2878.983467125, -0.047613608019665535, -0.16957575723139073, 0.8171110983777279, 0.09112811088562012, -0.17798800766468048, 0.9866439700126648, -0.04691293090581894, 0.16876420378684998, -0.9845393896102905, 0.04448682814836502, -0.010332122445106506, -0.021915018558502197, -0.06827105038699802, -0.05540186839638198, 0.9133389064178769,0.39759483676907303,-0.0034332275390625,0.159698486328125,-1.00592041015625
20220123-1523,2022-01-23 15:23:31Z,u01, 31,40,movements,el-ex, rt, d,2879.0084141250004, -0.04786646056218167, -0.16772075696127792, 0.8417679345108091, 0.13092678785324097, -0.18336918950080872, 0.9637194871902466, -0.047176770865917206, 0.1669355183839798, -0.9848384857177734, 0.02434966340661049, -0.016300663352012634, -0.013803422451019287, -0.06668710628754816, -0.05597836925396634, 0.9084410751025394,0.4088446295742429,-0.02154541015625,0.1537628173828125,-1.0050201416015625
20220123-1523,2022-01-23 15:23:31Z,u01, 32,40,movements,el-ex, rt, d,2879.0333601250004, -0.048693197524261704, -0.16515037550748804, 0.8664359995683887, 0.1662384420633316, -0.20696452260017395, 0.9707624912261963, -0.04801168292760849, 0.16440066695213318, -0.9852244853973389, 0.01621241122484207, -0.025637149810791016, -0.018681764602661133, -0.06465480901177575, -0.05663488320329238, 0.9034159004261695,0.42006175877770513,-0.033233642578125,0.1373443603515625,-1.0024871826171875
20220123-1523,2022-01-23 15:23:31Z,u01, 33,40,movements,el-ex, rt, d,2879.0583071250003, -0.049829942986746964, -0.16246454619105039, 0.891139105421316, 0.12694989144802094, -0.2115318477153778, 0.9775785803794861, -0.049153417348861694, 0.16175079345703125, -0.9856067299842834, 0.016270779073238373, -0.024909883737564087, 0.004161417484283447, -0.062496736960457155, -0.05736543283313464, 0.8982394850259426,0.4312415286879028,-0.036224365234375,0.131622314453125,-0.98553466796875
20220123-1523,2022-01-23 15:23:31Z,u01, 34,40,movements,el-ex, rt, d,2879.0832531250003, -0.05096512631213198, -0.16157767305509185, 0.9159823276955736, 0.029957860708236694, -0.20722413063049316, 0.9697502255439758, -0.050279516726732254, 0.16087552905082703, -0.9856931567192078, 0.027208279818296432, -0.022524014115333557, 0.010854959487915039, -0.06113156268699188, -0.05844951181116818, 0.892817531517603,0.44240632797564206,-0.022705078125,0.13824462890625,-0.973663330078125
20220123-1523,2022-01-23 15:23:31Z,u01, 35,40,movements,el-ex, rt, d,2879.108200125, -0.052414015897601016, -0.16252860458906157, 0.9404301452911512, 0.021596066653728485, -0.22024618089199066, 0.9652391076087952, -0.05169958621263504, 0.16181400418281555, -0.9854660630226135, 0.020464900881052017, -0.018182948231697083, 0.004356503486633301, -0.060506919490254565, -0.06004894984081532, 0.8872600194873059,0.4533240054833028,-0.0274810791015625,0.1396026611328125,-0.9785003662109375
20220123-1523,2022-01-23 15:23:31Z,u01, 36,40,movements,el-ex, rt, d,2879.133146125, -0.05416741899304989, -0.16212181948470236, 0.9648802465331955, 0.09824617207050323, -0.23084542155265808, 0.964155912399292, -0.053430985659360886, 0.1614125669002533, -0.9854395389556885, 0.01719142496585846, -0.011266008019447327, -0.013309180736541748, -0.05918165533953895, -0.061463436014805986, 0.8816155718824081,0.4641916426999469,-0.0364990234375,0.1491851806640625,-0.9984130859375
20220123-1523,2022-01-23 15:23:31Z,u01, 37,40,movements,el-ex, rt, d,2879.158092125, -0.0559505351066444, -0.1613728047547516, 0.9892322362183266, 0.05168759077787399, -0.22247032821178436, 0.9503463506698608, -0.05519479885697365, 0.1606733202934265, -0.9854631423950195, 0.025379184633493423, -0.014005765318870544, 0.005147039890289307, -0.057676673759113145, -0.0627839782869513, 0.8758740130641546,0.4749486141869835,-0.031005859375,0.14453125,-0.98516845703125
20220123-1523,2022-01-23 15:23:31Z,u01, 38,40,movements,el-ex, rt, d,2879.183039125, -0.05788543370982296, -0.1622564182146169, 1.0129773226607304, -0.0002785036340355873, -0.2490379512310028, 0.9234455823898315, -0.05709322914481163, 0.16154539585113525, -0.9852123856544495, 0.04331459850072861, -0.01226857304573059, 0.002180159091949463, -0.05684309320175468, -0.06451875111430726, 0.8700744236576952,0.4853624146124691,-0.0140228271484375,0.149688720703125,-0.984375
20220123-1523,2022-01-23 15:23:31Z,u01, 39,40,movements,el-ex, rt, d,2879.207985125, -0.06064280516041057, -0.16306602945001555, 1.0357808214903355, 0.053420212119817734, -0.2610017955303192, 0.8900116086006165, -0.05980165675282478, 0.1623443216085434, -0.98492032289505, 0.039080288261175156, 0.001107916235923767, -0.013858914375305176, -0.055771830590044286, -0.0665532183284866, 0.8643587668808849,0.4953222487485902,-0.0197601318359375,0.166259765625,-0.9992218017578125
20220123-1523,2022-01-23 15:23:31Z,u01, 40,40,movements,el-ex, rt, d,2879.2329321250004, -0.06309459887647392, -0.16237041059718138, 1.0584191219743897, 0.10019323974847794, -0.23141394555568695, 0.8923667073249817, -0.0622234046459198, 0.1616578847169876, -0.9848832488059998, 0.042264971882104874, -0.01686716079711914, 0.004643380641937256, -0.054096198375101115, -0.06805870589837902, 0.8586437239605296,0.5051460168660353,-0.01922607421875,0.1451568603515625,-0.980377197265625
20220123-1523,2022-01-23 15:23:31Z,u01, 41,40,movements,el-ex, rt, d,2879.2578781250004, -0.06465458135407953, -0.1613802093084375, 1.0810776545152865, 0.09833069890737534, -0.20116989314556122, 0.9037537574768066, -0.06377004086971283, 0.1606806367635727, -0.984944224357605, 0.057346150279045105, -0.022252827882766724, -0.0063735246658325195, -0.052496531162297494, -0.06907968855963183, 0.8528546373552629,0.514889514620695,-0.0085296630859375,0.14190673828125,-0.98876953125
20220123-1523,2022-01-23 15:23:31Z,u01, 42,40,movements,el-ex, rt, d,2879.2828251250003, -0.0658326607885325, -0.15998085840178256, 1.1042481538907922, 0.10660985857248306, -0.20382678508758545, 0.9135982394218445, -0.06494506448507309, 0.1592993140220642, -0.9850918054580688, 0.07873907685279846, -0.0004857480525970459, -0.007400870323181152, -0.05078918271070898, -0.06981801560324556, 0.8468509539477178,0.5247755409999667,0.0164031982421875,0.1601409912109375,-0.99139404296875
20220123-1523,2022-01-23 15:23:31Z,u01, 43,40,movements,el-ex, rt, d,2879.3077711250003, -0.06725016980046347, -0.1593004131351854, 1.1273473699107883, 0.03639671951532364, -0.20438705384731293, 0.9001733064651489, -0.06634864211082458, 0.15862751007080078, -0.9851066470146179, 0.09476058185100555, 0.007189825177192688, 0.016829729080200195, -0.04931358530438334, -0.07081548050949045, 0.8407124361423965,0.5345612783152214,0.03167724609375,0.1636199951171875,-0.9722900390625
20220123-1523,2022-01-23 15:23:31Z,u01, 44,40,movements,el-ex, rt, d,2879.3327171250003, -0.06874544613439815, -0.1595219892021054, 1.1500351934633253, 0.0844443067908287, -0.189344123005867, 0.8918933868408203, -0.06781916320323944, 0.15884628891944885, -0.984971284866333, 0.05451356619596481, -4.798173904418945e-05, -0.005644559860229492, -0.04819311674827381, -0.07205403550359453, 0.8345315329609512,0.5440981298612857,-0.016754150390625,0.15924072265625,-0.991790771484375
20220123-1523,2022-01-23 15:23:31Z,u01, 45,40,movements,el-ex, rt, d,2879.357664125, -0.06965687844497209, -0.15784753731624004, 1.1727514805360646, 0.16557501256465912, -0.18447473645210266, 0.8930500745773315, -0.0687352791428566, 0.1571928709745407, -0.9851729869842529, 0.041040658950805664, 0.015124708414077759, -0.017146289348602295, -0.0464233303782371, -0.0725146124992893, 0.8283359928757853,0.5535755871068557,-0.0311737060546875,0.173309326171875,-1.0009002685546875
20220123-1523,2022-01-23 15:23:31Z,u01, 46,40,movements,el-ex, rt, d,2879.382611625, -0.0703941194970315, -0.15482325486214027, 1.1958847795306073, 0.17125815153121948, -0.17955327033996582, 0.9098345041275024, -0.06949469447135925, 0.15420547127723694, -0.9855917692184448, 0.04773574322462082, -0.0008850991725921631, -0.0100746750831604, -0.04412638219833588, -0.07250498088473004, 0.8219780911689897,0.5631587708241644,-0.0212860107421875,0.1555633544921875,-0.996673583984375
20220123-1523,2022-01-23 15:23:31Z,u01, 47,40,movements,el-ex, rt, d,2879.407558625, -0.07149523107960833, -0.15204719070792103, 1.2194002509049222, 0.1732788383960724, -0.20787732303142548, 0.9378142356872559, -0.07061020284891129, 0.15146201848983765, -0.9859378337860107, 0.06957268714904785, 0.006802216172218323, -0.009637117385864258, -0.04181946173629231, -0.072678776433535, 0.815375212349937,0.5728282723976612,-0.0044708251953125,0.1625518798828125,-1.000396728515625
20220123-1523,2022-01-23 15:23:31Z,u01, 48,40,movements,el-ex, rt, d,2879.432504625, -0.07360189289791477, -0.15064829933209659, 1.2436454278859461, 0.06179102510213852, -0.23421365022659302, 0.9734182357788086, -0.07270259410142899, 0.15007911622524261, -0.9859972596168518, 0.06740787625312805, 0.0036685168743133545, 0.022877752780914307, -0.03975394285261191, -0.07362741221295753, 0.8083516337066331,0.5827231242605949,-0.0067291259765625,0.1544036865234375,-0.9594573974609375
20220123-1523,2022-01-23 15:23:31Z,u01, 49,40,movements,el-ex, rt, d,2879.457451625, -0.07495765923445907, -0.1517045091473107, 1.2682318205289644, 0.003823729231953621, -0.19212479889392853, 0.9682173132896423, -0.0740273967385292, 0.1511232852935791, -0.9857391715049744, 0.06835120916366577, 0.04162581264972687, 0.040060460567474365, -0.03886892496716996, -0.07496415730007915, 0.8010330307260535,0.5926345441904963,-0.0126800537109375,0.18450927734375,-0.93695068359375
20220123-1523,2022-01-23 15:23:31Z,u01, 50,40,movements,el-ex, rt, d,2879.482397625, -0.07570667403563087, -0.15373186294054647, 1.2923987734433087, -0.01586938090622425, -0.15159009397029877, 0.954998254776001, -0.0747423842549324, 0.1531270444393158, -0.9853759407997131, 0.08412662148475647, 0.06313584744930267, 0.027917444705963135, -0.03854284836409299, -0.07633146767125007, 0.7937006353013555,0.6022684863402392,0.00823974609375,0.2172393798828125,-0.9555816650390625
20220123-1523,2022-01-23 15:23:31Z,u01, 51,40,movements,el-ex, rt, d,2879.507343625, -0.07525940540336237, -0.1553004259774397, 1.3162394015730983, 0.029189009219408035, -0.1192692294716835, 0.9367963075637817, -0.07428349554538727, 0.1546769142150879, -0.9851685166358948, 0.08893202245235443, 0.07902675867080688, 0.047210752964019775, -0.038386609866077614, -0.07708572353134734, 0.7864163665519063,0.6116644938870236,0.0126953125,0.234130859375,-0.936492919921875
20220123-1523,2022-01-23 15:23:31Z,u01, 52,40,movements,el-ex, rt, d,2879.5322906250003, -0.07426213011704536, -0.15578492538915578, 1.3397983034852203, 0.05523179471492767, -0.0936642736196518, 0.9208178520202637, -0.07329540699720383, 0.15515556931495667, -0.9851672649383545, 0.0743788629770279, 0.05712476372718811, 0.03648257255554199, -0.03797515995155108, -0.07729331291172968, 0.7791752482418509,0.6208619737548231,-0.000762939453125,0.210723876953125,-0.948699951171875
20220123-1523,2022-01-23 15:23:31Z,u01, 53,40,movements,el-ex, rt, d,2879.5572366250003, -0.07277452194576882, -0.15591482710522866, 1.3629922321521233, 0.09416311234235764, -0.08277000486850739, 0.9161657094955444, -0.07182832062244415, 0.15528389811515808, -0.9852551221847534, 0.05579141527414322, 0.0672198235988617, -0.003193974494934082, -0.03759510991803357, -0.07719494436093169, 0.7719750818721763,0.6298269853275701,-0.0181732177734375,0.223297119140625,-0.9857635498046875
20220123-1523,2022-01-23 15:23:31Z,u01, 54,40,movements,el-ex, rt, d,2879.582183625, -0.07176312626571078, -0.15443901414517722, 1.3858827137624996, 0.1455676257610321, -0.11558674275875092, 0.8859149217605591, -0.07084815204143524, 0.1538258194923401, -0.9855547547340393, 0.061250463128089905, 0.06236076354980469, -0.012049615383148193, -0.03646513264208655, -0.07676536779821569, 0.7648160655643462,0.6386185515157428,-0.0094451904296875,0.215423583984375,-0.996490478515625
20220123-1523,2022-01-23 15:23:31Z,u01, 55,40,movements,el-ex, rt, d,2879.607129625, -0.07147020162690604, -0.15216224028236564, 1.4085611355457535, 0.16765378415584564, -0.13441629707813263, 0.8985548615455627, -0.07058428227901459, 0.1515757441520691, -0.9859222173690796, 0.07377346605062485, 0.05267845094203949, -0.0033202767372131348, -0.03482069176212415, -0.07633087117027364, 0.7576296426356569,0.6472699977262185,1.52587890625e-05,0.2097015380859375,-0.99365234375
20220123-1523,2022-01-23 15:23:31Z,u01, 56,40,movements,el-ex, rt, d,2879.632076625, -0.07136942040408409, -0.1498231543089194, 1.431885631532638, 0.13324293494224548, -0.1616646945476532, 0.926485538482666, -0.07051000744104385, 0.14926327764987946, -0.9862802624702454, 0.10098190605640411, 0.05233590304851532, 0.024274706840515137, -0.03307983019823797, -0.07593141007419314, 0.750127321024754,0.6560862054494214,0.033050537109375,0.2028961181640625,-0.9616546630859375
20220123-1523,2022-01-23 15:23:31Z,u01, 57,40,movements,el-ex, rt, d,2879.657022625, -0.07209336042599017, -0.14966455108557777, 1.4559118752222975, -0.008527179248631, -0.1771276742219925, 0.9811124801635742, -0.07122570276260376, 0.1491064429283142, -0.9862526059150696, 0.11810079962015152, 0.034624695777893066, 0.05465775728225708, -0.03186542523219622, -0.07653953079305054, 0.7421704861613148,0.6650634290528588,0.0472412109375,0.1883087158203125,-0.9352569580078125
20220123-1523,2022-01-23 15:23:31Z,u01, 58,40,movements,el-ex, rt, d,2879.681969625, -0.07246522461987462, -0.1537236803356133, 1.481219768279965, -0.15315869450569153, -0.16185609996318817, 1.0363689661026, -0.07154803723096848, 0.15311895310878754, -0.9856142401695251, 0.11059538275003433, 0.040408313274383545, 0.06045866012573242, -0.03226538461486398, -0.07843351446994364, 0.7335183611169754,0.6743574604177813,0.03778076171875,0.19549560546875,-0.926177978515625
20220123-1523,2022-01-23 15:23:31Z,u01, 59,40,movements,el-ex, rt, d,2879.706915625, -0.07202353470782791, -0.15879953640457728, 1.5069301603147482, -0.10598482191562653, -0.13450418412685394, 1.0206695795059204, -0.07105585187673569, 0.15813295543193817, -0.9848578572273254, 0.09208256006240845, 0.07587587833404541, 0.03879767656326294, -0.033254467147358774, -0.08040649194513191, 0.7245995998059145,0.6836550871327959,0.022857666015625,0.2308807373046875,-0.943084716796875
20220123-1523,2022-01-23 15:23:31Z,u01, 60,40,movements,el-ex, rt, d,2879.731861625, -0.07136536064096746, -0.16203842959379408, 1.5322324870730983, -0.01584983989596367, -0.1356506049633026, 0.9852961897850037, -0.07037074118852615, 0.16133026778697968, -0.9843884110450745, 0.07764928042888641, 0.0725564956665039, 0.006330549716949463, -0.03362828477842451, -0.08170032115506819, 0.7157861114861299,0.6927081040599283,0.006591796875,0.2339324951171875,-0.978759765625
20220123-1523,2022-01-23 15:23:31Z,u01, 61,40,movements,el-ex, rt, d,2879.7568086250003, -0.07075661657713443, -0.16331859188952635, 1.556938145256037, 0.05079999193549156, -0.14655232429504395, 0.9781774878501892, -0.06975682824850082, 0.1625935286283493, -0.9842242002487183, 0.08629745990037918, 0.047687873244285583, 0.0002917647361755371, -0.0332852617083402, -0.08234061440672567, 0.7071469460120606,0.7014666229491924,0.01495361328125,0.214019775390625,-0.9816131591796875
20220123-1523,2022-01-23 15:23:31Z,u01, 62,40,movements,el-ex, rt, d,2879.7817546250003, -0.07058560472485044, -0.16363911136722675, 1.5816214237420807, 0.04360499978065491, -0.1628192961215973, 0.9758308529853821, -0.06958483159542084, 0.16290977597236633, -0.9841840863227844, 0.0841265544295311, 0.046715497970581055, -0.005165278911590576, -0.03243984023268179, -0.08279857061550104, 0.698429848196922,0.710132237344953,0.014495849609375,0.209442138671875,-0.9882354736328125
20220123-1523,2022-01-23 15:23:31Z,u01, 63,40,movements,el-ex, rt, d,2879.806701625, -0.07070677557876762, -0.16481880899760273, 1.6064071223828025, -0.00144606688991189, -0.16620305180549622, 0.9861248731613159, -0.06969045847654343, 0.16407360136508942, -0.9839832782745361, 0.07648072391748428, 0.036686331033706665, -0.002894163131713867, -0.031776908812423704, -0.08365756837935467, 0.6895222854297669,0.7187145581550201,0.008514404296875,0.1976776123046875,-0.9873199462890625
20220123-1523,2022-01-23 15:23:31Z,u01, 64,40,movements,el-ex, rt, d,2879.831647625, -0.07083160809909295, -0.16652275928110172, 1.6315044585784566, 0.017229314893484116, -0.1828092634677887, 1.0072269439697266, -0.06979340314865112, 0.16575421392917633, -0.9836942553520203, 0.08056621253490448, 0.04358114302158356, 0.0007993578910827637, -0.0312625738939062, -0.08470841892928554, 0.6803738888325829,0.7272815458549134,0.0113677978515625,0.2084808349609375,-0.982147216796875
20220123-1523,2022-01-23 15:23:31Z,u01, 65,40,movements,el-ex, rt, d,2879.856594625, -0.07103891923305837, -0.16782253296192393, 1.6574281685944021, 0.016485728323459625, -0.18391293287277222, 1.0376572608947754, -0.06998198479413986, 0.16703587770462036, -0.9834640622138977, 0.08527139574289322, 0.04574798047542572, 0.012333691120147705, -0.030524524835426337, -0.08565178686415947, 0.6708276434683649,0.7360178102046425,0.01483154296875,0.2136383056640625,-0.9757232666015625
20220123-1523,2022-01-23 15:23:31Z,u01, 66,40,movements,el-ex, rt, d,2879.881540625, -0.07105468937878745, -0.169461700419939, 1.6841130389289998, 0.024396317079663277, -0.16290099918842316, 1.074076533317566, -0.06997796148061752, 0.1686517894268036, -0.9831885099411011, 0.07704287767410278, 0.0430639386177063, 0.028034090995788574, -0.029918502655928242, -0.0866638539450301, 0.6608798418386235,0.744870601935657,0.006378173828125,0.21368408203125,-0.9553680419921875
20220123-1523,2022-01-23 15:23:31Z,u01, 67,40,movements,el-ex, rt, d,2879.906486625, -0.06999458430088094, -0.1700193936645279, 1.7115662907892386, 0.06478558480739594, -0.12135908007621765, 1.078315019607544, -0.06892905384302139, 0.16920146346092224, -0.9831681847572327, 0.08490510284900665, 0.060489118099212646, 0.027235567569732666, -0.029308380436525273, -0.08693062135567374, 0.6506165557655369,0.7538449974371525,0.0126800537109375,0.229766845703125,-0.956573486328125
20220123-1523,2022-01-23 15:23:32Z,u01, 68,40,movements,el-ex, rt, d,2879.931433625, -0.06816230678759212, -0.17022215507109284, 1.739011174955133, 0.07252322882413864, -0.12175329774618149, 1.0755008459091187, -0.06712516397237778, 0.16940130293369293, -0.9832585453987122, 0.08392519503831863, 0.060624971985816956, 0.020032286643981934, -0.028876846731677272, -0.08681499201708029, 0.6402825501507626,0.7626713562730201,0.01641845703125,0.230926513671875,-0.9651336669921875
20220123-1523,2022-01-23 15:23:32Z,u01, 69,40,movements,el-ex, rt, d,2879.956379625, -0.06648443687687497, -0.17022341641498212, 1.766475931536448, 0.08207879215478897, -0.1217556893825531, 1.0948481559753418, -0.06547527015209198, 0.16940253973007202, -0.9833695888519287, 0.06649772077798843, 0.042069047689437866, 0.003587484359741211, -0.028329523295719444, -0.08667547571507123, 0.6298221157687964,0.771368250091847,0.001312255859375,0.2126617431640625,-0.973541259765625
20220123-1523,2022-01-23 15:23:32Z,u01, 70,40,movements,el-ex, rt, d,2879.9813266250003, -0.06501476808451011, -0.16834460770741264, 1.7946259775315976, 0.22148308157920837, -0.14384248852729797, 1.117290735244751, -0.06405054032802582, 0.16755059361457825, -0.9837806224822998, 0.07447239756584167, 0.07295845448970795, -0.030883073806762695, -0.027094543293353077, -0.08588114407950055, 0.6190400822115927,0.7801792430624689,0.0107879638671875,0.2408905029296875,-1.01416015625
20220123-1523,2022-01-23 15:23:32Z,u01, 71,40,movements,el-ex, rt, d,2880.0062726250003, -0.06388125312733224, -0.1638743354040155, 1.823422857498967, 0.24581597745418549, -0.15275156497955322, 1.1309244632720947, -0.06298255175352097, 0.16314184665679932, -0.9845902323722839, 0.05060778558254242, 0.044423460960388184, -0.0048354268074035645, -0.02493435176847611, -0.08416150346572858, 0.6079615861814547,0.789099465723803,-0.0098114013671875,0.212554931640625,-0.990020751953125
20220123-1523,2022-01-23 15:23:32Z,u01, 72,40,movements,el-ex, rt, d,2880.031219625, -0.06364922743693083, -0.16134413907942952, 1.8518845456755564, 0.08652559667825699, -0.20442579686641693, 1.1152892112731934, -0.06278015673160553, 0.1606450378894806, -0.9850136041641235, 0.059286005795001984, 0.0546564906835556, -0.004778265953063965, -0.023066573468086854, -0.08343334951763773, 0.5967744407995521,0.7977262741463479,-0.0006561279296875,0.216064453125,-0.9884796142578125
20220123-1523,2022-01-23 15:23:32Z,u01, 73,40,movements,el-ex, rt, d,2880.056165625, -0.06446856941418357, -0.16212746885291726, 1.880547640254334, -0.010408170521259308, -0.22895731031894684, 1.1522696018218994, -0.06357907503843307, 0.1614181399345398, -0.9848359823226929, 0.12549933791160583, 0.056095898151397705, 0.01619279384613037, -0.021769095210550142, -0.08430968287027008, 0.585217583198001,0.8061875016972466,0.06207275390625,0.2169189453125,-0.9710235595703125
20220123-1523,2022-01-23 15:23:32Z,u01, 74,40,movements,el-ex, rt, d,2880.081112625, -0.06527364291230976, -0.164946667710474, 1.9096664317425809, -0.066525898873806, -0.21974356472492218, 1.1563467979431152, -0.06434197723865509, 0.16419972479343414, -0.9843264222145081, 0.10097843408584595, 0.05805981159210205, 0.03394800424575806, -0.021025722084344063, -0.08599240353052913, 0.5732804479885683,0.8145629515185202,0.0357513427734375,0.2221527099609375,-0.9498138427734375
20220123-1523,2022-01-23 15:23:32Z,u01, 75,40,movements,el-ex, rt, d,2880.106058625, -0.06577030744347208, -0.16886913360054567, 1.939166486821008, -0.07886935025453568, -0.2117268592119217, 1.1863372325897217, -0.06478802114725113, 0.16806767880916595, -0.9836441278457642, 0.07949760556221008, 0.04642513394355774, 0.00969088077545166, -0.020660063510123478, -0.08804031772222236, 0.5610368675610543,0.8228364319069993,0.0169219970703125,0.210662841796875,-0.9715728759765625
20220123-1523,2022-01-23 15:23:32Z,u01, 76,40,movements,el-ex, rt, d,2880.131004625, -0.06593994458658319, -0.1717853457287756, 1.9690564286555303, 0.023305784910917282, -0.20837253332138062, 1.1916745901107788, -0.06492231041193008, 0.17094168066978455, -0.9831398725509644, 0.08427056670188904, 0.05978645384311676, -0.012694478034973145, -0.02007829903187726, -0.08959307693057159, 0.5485613854731908,0.8310537716042371,0.020111083984375,0.230682373046875,-0.9976043701171875
20220123-1523,2022-01-23 15:23:32Z,u01, 77,40,movements,el-ex, rt, d,2880.1559516250004, -0.06625185920200023, -0.1731027482293766, 1.998800005460006, 4.8930756747722626e-05, -0.2350616753101349, 1.169753074645996, -0.06521400064229965, 0.17223955690860748, -0.9828940033912659, 0.1232738047838211, 0.05757306516170502, -0.010315775871276855, -0.01896914303445813, -0.09051606167979717, 0.5360789371454606,0.8390866344400596,0.0519866943359375,0.234466552734375,-0.9969635009765625
20220123-1523,2022-01-23 15:23:32Z,u01, 78,40,movements,el-ex, rt, d,2880.1808976250004, -0.06712044312802991, -0.17586661868671938, 2.0285242562653862, -0.06224014237523079, -0.23843616247177124, 1.1782020330429077, -0.06603551656007767, 0.17496144771575928, -0.9823582768440247, 0.10482347011566162, 0.04308664798736572, 0.007214844226837158, -0.017984257851548054, -0.09218146817316342, 0.5234073919867975,0.8468907613598169,0.0352630615234375,0.220184326171875,-0.9759063720703125
20220123-1523,2022-01-23 15:23:32Z,u01, 79,40,movements,el-ex, rt, d,2880.2058446250003, -0.06740659904271709, -0.17889948405223566, 2.0578756452299345, -0.007917615585029125, -0.21601921319961548, 1.162576675415039, -0.06628058105707169, 0.17794673144817352, -0.9818053841590881, 0.08214982599020004, 0.05294924974441528, -0.013327062129974365, -0.017289712800261196, -0.09379959836628937, 0.5107966494285341,0.8543942490778433,0.0135955810546875,0.232025146484375,-0.993255615234375
20220123-1523,2022-01-23 15:23:32Z,u01, 80,40,movements,el-ex, rt, d,2880.2307906250003, -0.0677835543645885, -0.1793420735901874, 2.0874444958794562, 0.12568601965904236, -0.2434965819120407, 1.1624168157577515, -0.06664533168077469, 0.17838223278522491, -0.981701672077179, 0.10097771137952805, 0.05284944176673889, -0.031268298625946045, -0.015850040045624354, -0.09432888992963215, 0.49807536225454235,0.8618420572013796,0.0355377197265625,0.2318878173828125,-1.0139312744140625
20220123-1523,2022-01-23 15:23:32Z,u01, 81,40,movements,el-ex, rt, d,2880.255737625, -0.06880846731102173, -0.17752523549722096, 2.1169266015043244, 0.13797950744628906, -0.2673242688179016, 1.153257966041565, -0.06767362356185913, 0.17659424245357513, -0.9819545745849609, 0.10527139157056808, 0.027949810028076172, -0.012918472290039062, -0.013566775232063238, -0.09401417370035024, 0.4853354716789341,0.8691528377549471,0.0362396240234375,0.208984375,-0.9985809326171875
20220123-1523,2022-01-23 15:23:32Z,u01, 82,40,movements,el-ex, rt, d,2880.280683625, -0.07063998500966034, -0.17756257863292013, 2.1467224218518157, 0.029410548508167267, -0.2921593189239502, 1.1989116668701172, -0.06947150826454163, 0.17663100361824036, -0.9818223714828491, 0.10984637588262558, -0.0001478642225265503, -0.0007673501968383789, -0.011371158000794211, -0.09465465531975627, 0.47224575280163367,0.8762962563830775,0.039093017578125,0.174591064453125,-0.9818115234375
20220123-1523,2022-01-23 15:23:32Z,u01, 83,40,movements,el-ex, rt, d,2880.305629625, -0.07236387952467899, -0.1793839901188344, 2.1773139527824217, 0.005940176546573639, -0.2886853516101837, 1.2175992727279663, -0.0711405873298645, 0.17842347919940948, -0.9813786745071411, 0.09528009593486786, 0.006131559610366821, -0.0024775266647338867, -0.009583523206176836, -0.0960147156466144, 0.4586388119710886,0.8833683957813578,0.0237884521484375,0.182586669921875,-0.9834747314453125
20220123-1523,2022-01-23 15:23:32Z,u01, 84,40,movements,el-ex, rt, d,2880.330576625, -0.07401116146769086, -0.18095425382495559, 2.208358496449307, 0.04922047257423401, -0.2882487177848816, 1.236912727355957, -0.07273629307746887, 0.17996832728385925, -0.9809795022010803, 0.09090961515903473, 0.005990520119667053, 0.004218637943267822, -0.007712580263709843, -0.0972149710027641, 0.4447354382628066,0.8903372138319744,0.01654052734375,0.18621826171875,-0.975128173828125
20220123-1523,2022-01-23 15:23:32Z,u01, 85,40,movements,el-ex, rt, d,2880.355522625, -0.0752060564556788, -0.18083727422516674, 2.240008680580856, 0.13714444637298584, -0.2594999670982361, 1.2572120428085327, -0.07390999048948288, 0.17985326051712036, -0.9809129238128662, 0.07467304170131683, 0.009508267045021057, 0.02806258201599121, -0.0056116300317106075, -0.09752978185573236, 0.4305366440546821,0.8972707079289884,7.62939453125e-05,0.1889190673828125,-0.9554595947265625
20220123-1523,2022-01-23 15:23:32Z,u01, 86,40,movements,el-ex, rt, d,2880.380469291667, -0.07558250092479983, -0.1791460505243868, 2.2723095191979263, 0.17388787865638733, -0.23683607578277588, 1.2605130672454834, -0.07430209964513779, 0.17818935215473175, -0.9811869263648987, 0.06963302195072174, 0.016436457633972168, 0.02087503671646118, -0.003508656078275196, -0.09692386423465968, 0.4160321982781673,0.9041629170846951,-0.0054168701171875,0.1952667236328125,-0.961090087890625
20220123-1523,2022-01-23 15:23:32Z,u01, 87,40,movements,el-ex, rt, d,2880.405415291667, -0.07551807353260442, -0.17845082560175204, 2.303589711652869, 0.04676324129104614, -0.22569626569747925, 1.1957957744598389, -0.07424821704626083, 0.17750521004199982, -0.9813149571418762, 0.07028104364871979, 0.0187227725982666, 0.015159010887145996, -0.0018798931078533414, -0.09663836500884006, 0.4018683943591913,0.9105818091955051,-0.0040740966796875,0.198516845703125,-0.9653167724609375
20220123-1523,2022-01-23 15:23:32Z,u01, 88,40,movements,el-ex, rt, d,2880.430362291667, -0.0757051996833216, -0.1806480504531341, 2.333372020670959, 0.00031598005443811417, -0.2073441743850708, 1.1578384637832642, -0.07440216839313507, 0.17966711521148682, -0.9809098243713379, 0.05374187231063843, 0.017125442624092102, 0.00857400894165039, -0.0007882933774413653, -0.09769583135894402, 0.3881789807238549,0.9163907804891547,-0.022735595703125,0.1978302001953125,-0.97314453125
20220123-1523,2022-01-23 15:23:32Z,u01, 89,40,movements,el-ex, rt, d,2880.455308291667, -0.07476323094035069, -0.18072836707971843, 2.3625689620040258, 0.16436277329921722, -0.14870814979076385, 1.1415704488754272, -0.07347706705331802, 0.1797461211681366, -0.9809650778770447, 0.03471985459327698, 0.022173374891281128, -0.008292734622955322, 0.00018842593566942463, -0.09755734293838343, 0.3748032994135304,0.9219571030599115,-0.04010009765625,0.2024688720703125,-0.9889678955078125
20220123-1523,2022-01-23 15:23:32Z,u01, 90,40,movements,el-ex, rt, d,2880.4802552916667, -0.07273147092894999, -0.17738255958617388, 2.391746980705241, 0.2421497106552124, -0.11252298206090927, 1.1423676013946533, -0.0715271383523941, 0.17645381391048431, -0.9817066192626953, 0.04313063621520996, 0.0052172839641571045, -0.006254136562347412, 0.0012843814085340029, -0.09562965470419599, 0.3615235750651933,0.9274449422863832,-0.028289794921875,0.181060791015625,-0.9890289306640625
20220123-1523,2022-01-23 15:23:32Z,u01, 91,40,movements,el-ex, rt, d,2880.5052012916667, -0.07013269736835791, -0.17409983962068093, 2.4215301013000423, 0.15955457091331482, -0.11674728244543076, 1.1794192790985107, -0.06901588290929794, 0.1732216626405716, -0.9824617505073547, 0.0616002082824707, -0.015979871153831482, -0.010381877422332764, 0.002076689077796543, -0.09362060921759648, 0.3479011419975204,0.9328427886914596,-0.0095672607421875,0.1556854248046875,-0.987701416015625
20220123-1523,2022-01-23 15:23:32Z,u01, 92,40,movements,el-ex, rt, d,2880.5301472916667, -0.06833085806286349, -0.1736480159419628, 2.4516299808854924, 0.062118928879499435, -0.15647585690021515, 1.1904829740524292, -0.06725087016820908, 0.17277663946151733, -0.9826624989509583, 0.06667114049196243, 0.015593037009239197, -0.024615943431854248, 0.0027170393557135707, -0.09306651593135082, 0.33392112198807056,0.9379914795748071,-0.0005340576171875,0.1883392333984375,-1.0074615478515625
20220123-1523,2022-01-23 15:23:32Z,u01, 93,40,movements,el-ex, rt, d,2880.555094291667, -0.06720676500648674, -0.174024871555035, 2.4818216362118055, 0.07374126464128494, -0.16320480406284332, 1.1825655698776245, -0.06614184379577637, 0.17314782738685608, -0.982672393321991, 0.056757792830467224, 0.017815858125686646, -0.007363557815551758, 0.0035303315594604895, -0.09301250091051469, 0.31976480699377285,0.9429139630264621,-0.006103515625,0.19122314453125,-0.9974517822265625
20220123-1523,2022-01-23 15:23:32Z,u01, 94,40,movements,el-ex, rt, d,2880.580040291667, -0.06608144137468466, -0.17400307586230568, 2.5114852758811277, 0.07639197260141373, -0.16095268726348877, 1.14902663230896, -0.06503622978925705, 0.17312635481357574, -0.9827499985694885, 0.05128815770149231, 0.01461772620677948, 0.0026779770851135254, 0.004379679659165877, -0.09276756265339837, 0.30579786331149733,0.9475561387850873,-0.012969970703125,0.1885223388671875,-0.9806365966796875
20220123-1523,2022-01-23 15:23:32Z,u01, 95,40,movements,el-ex, rt, d,2880.604987291667, -0.06517253776504094, -0.17429157477059248, 2.5402802644802427, 0.06348755210638046, -0.17817389965057373, 1.1233056783676147, -0.064139723777771, 0.17341049015522003, -0.9827588200569153, 0.04946085810661316, 0.022161364555358887, -0.018690764904022217, 0.005239296755182659, -0.09269918612155514, 0.2921581609451652,0.9518524532464201,-0.011505126953125,0.2003631591796875,-1.0005340576171875
20220123-1523,2022-01-23 15:23:32Z,u01, 96,40,movements,el-ex, rt, d,2880.629933291667, -0.06485661493379481, -0.1748556865954297, 2.568245272003807, 0.04087039828300476, -0.19289344549179077, 1.0813415050506592, -0.06382289528846741, 0.17396602034568787, -0.9826812744140625, 0.03385472297668457, 0.02160581946372986, -0.0306549072265625, 0.006303744989392807, -0.09284196717393717, 0.2788197389886151,0.9558244456106237,-0.0300750732421875,0.1958770751953125,-1.0140533447265625
20220123-1523,2022-01-23 15:23:32Z,u01, 97,40,movements,el-ex, rt, d,2880.654880291667, -0.06507654329679977, -0.17492457574549297, 2.5952434576989254, 0.10129272192716599, -0.20667770504951477, 1.0516639947891235, -0.0640382319688797, 0.17403386533260345, -0.9826552271842957, 0.013608023524284363, 0.02835865318775177, -0.024562180042266846, 0.007652581914692251, -0.09281065502712377, 0.26587983759588213,0.9594975881520617,-0.04791259765625,0.2036895751953125,-1.009185791015625
20220123-1523,2022-01-23 15:23:32Z,u01, 98,40,movements,el-ex, rt, d,2880.679826291667, -0.06558463347344988, -0.17292105850643297, 2.6219197509341985, 0.18124428391456604, -0.200385183095932, 1.0393900871276855, -0.06456021964550018, 0.17206057906150818, -0.9829685091972351, 0.014343634247779846, 0.03228507936000824, -0.007860958576202393, 0.009393440971838333, -0.09180139300864522, 0.25308906503243944,0.9630318372658208,-0.0489501953125,0.2028961181640625,-0.9897613525390625
20220123-1523,2022-01-23 15:23:32Z,u01, 99,40,movements,el-ex, rt, d,2880.704772291667, -0.0664048481517755, -0.17099365959738444, 2.647970622603514, 0.09112201631069183, -0.20852987468242645, 1.0022999048233032, -0.06538832932710648, 0.17016160488128662, -0.9832442998886108, 0.03784629702568054, 0.039326250553131104, -0.00848543643951416, 0.011221737655445029, -0.09084003028943863, 0.24053752476743726,0.9663146224506486,-0.0271759033203125,0.20440673828125,-0.9921722412109375
20220123-1523,2022-01-23 15:23:32Z,u01, 100,40,movements,el-ex, rt, d,2880.7297192916667, -0.06719276696322306, -0.17056316491351925, 2.673158999838838, 0.08430458605289459, -0.21286416053771973, 0.9844464063644409, -0.0661679357290268, 0.16973736882209778, -0.9832655191421509, 0.055349551141262054, 0.04786814749240875, 0.007084488868713379, 0.012797072922347512, -0.09057311295787623, 0.22832429715978644,0.9692784569094145,-0.009124755859375,0.2170257568359375,-0.976318359375
20220123-1523,2022-01-23 15:23:32Z,u01, 101,40,movements,el-ex, rt, d,2880.7546652916667, -0.06824787774104546, -0.16979382219510303, 2.69806753692397, 0.11423639208078384, -0.21165987849235535, 0.9721382856369019, -0.0672142431139946, 0.16897913813591003, -0.9833251237869263, 0.07723934948444366, 0.044430211186409, 0.0057708024978637695, 0.014522217652677463, -0.09014734250588556, 0.21620750449941992,0.972068392555594,0.0092926025390625,0.2161407470703125,-0.98199462890625
20220123-1523,2022-01-23 15:23:32Z,u01, 102,40,movements,el-ex, rt, d,2880.779612291667, -0.06931022679928725, -0.16867578296486557, 2.722547871157637, 0.09576916694641113, -0.20052294433116913, 0.9507940411567688, -0.06827187538146973, 0.16787707805633545, -0.9834409952163696, 0.08198961615562439, 0.04112248122692108, 0.019070327281951904, 0.01625961540676078, -0.08952717889001771, 0.20427416012008054,0.9746755884724178,0.0130767822265625,0.2091064453125,-0.96441650390625
20220123-1523,2022-01-23 15:23:32Z,u01, 103,40,movements,el-ex, rt, d,2880.804558291667, -0.07033858139065699, -0.16869183578328936, 2.7463463424586525, 0.04949990659952164, -0.20132461190223694, 0.9345617294311523, -0.06928297877311707, 0.16789290308952332, -0.9833676218986511, 0.05477195233106613, 0.023162320256233215, 0.011382758617401123, 0.017824518300516606, -0.08943424978593795, 0.1926157283117432,0.9770276125567822,-0.009857177734375,0.1921234130859375,-0.97003173828125
20220123-1523,2022-01-23 15:23:32Z,u01, 104,40,movements,el-ex, rt, d,2880.829505291667, -0.070847431077455, -0.1685500371436096, 2.769891795795879, 0.09637177735567093, -0.16426946222782135, 0.9177610874176025, -0.06978504359722137, 0.16775311529636383, -0.9833559393882751, 0.038062095642089844, 0.0229511559009552, 0.013476788997650146, 0.019138536378805117, -0.08919493823246145, 0.18108122987449432,0.9792280441731492,-0.0308990478515625,0.1917572021484375,-0.9705047607421875
20220123-1523,2022-01-23 15:23:32Z,u01, 105,40,movements,el-ex, rt, d,2880.854451291667, -0.0706524419605393, -0.16688706018738333, 2.793174834155488, 0.1763031929731369, -0.1379505693912506, 0.9079033136367798, -0.06961289048194885, 0.1661134660243988, -0.9836464524269104, 0.05015800893306732, 0.011666610836982727, 0.00011068582534790039, 0.020225860564323114, -0.08813446685315926, 0.16971906482737217,0.9813351274373762,-0.0158843994140625,0.1797332763671875,-0.980255126953125
20220123-1523,2022-01-23 15:23:32Z,u01, 106,40,movements,el-ex, rt, d,2880.879397291667, -0.07002497236043881, -0.16307908997618212, 2.816400642635765, 0.2570143938064575, -0.13177263736724854, 0.904743492603302, -0.06903942674398422, 0.16235721111297607, -0.9843138456344604, 0.02506367862224579, 0.011394530534744263, -0.00807201862335205, 0.02125189300175223, -0.08597352776599085, 0.15843023458747807,0.9833904539783177,-0.043548583984375,0.174346923828125,-0.9939117431640625
20220123-1523,2022-01-23 15:23:32Z,u01, 107,40,movements,el-ex, rt, d,2880.904344291667, -0.07011791042465924, -0.15820553988707003, 2.840004494439308, 0.22767703235149384, -0.18372099101543427, 0.9372553825378418, -0.0691855251789093, 0.15754641592502594, -0.9850850105285645, 0.06654582917690277, 0.002625018358230591, -0.024375438690185547, 0.022682258037434608, -0.08332471063486725, 0.1469230780576601,0.985370991141516,-0.00518798828125,0.1654815673828125,-1.01202392578125
20220123-1523,2022-01-23 15:23:33Z,u01, 108,40,movements,el-ex, rt, d,2880.929290291667, -0.0711148895468638, -0.15588021730401314, 2.8644793660079064, 0.11109519004821777, -0.20043891668319702, 0.9845542311668396, -0.07019343972206116, 0.1552496999502182, -0.9853783249855042, 0.06077884882688522, 0.008461758494377136, -0.01135629415512085, 0.02435545940475882, -0.08196131546388569, 0.13486598550665002,0.9871678448156501,-0.0094451904296875,0.1653289794921875,-0.9980010986328125
20220123-1523,2022-01-23 15:23:33Z,u01, 109,40,movements,el-ex, rt, d,2880.9542372916667, -0.07220709365808889, -0.1553250002507741, 2.8898310946353916, 0.08758916705846786, -0.21937087178230286, 1.0057567358016968, -0.07127583771944046, 0.15470118820667267, -0.985386848449707, 0.11863918602466583, 0.05600734055042267, 0.004307746887207031, 0.02596788630351779, -0.08143851309901705, 0.12231027552421808,0.9888041152523327,0.03985595703125,0.2050628662109375,-0.9803466796875
20220123-1523,2022-01-23 15:23:33Z,u01, 110,40,movements,el-ex, rt, d,2880.9791832916667, -0.07389837445872659, -0.15542611135433015, 2.915312466045981, 0.05622788518667221, -0.23500663042068481, 1.0031189918518066, -0.07294114679098129, 0.15480108559131622, -0.9852493405342102, 0.12389031797647476, 0.08119124174118042, 0.024174511432647705, 0.027834914789933992, -0.08124383302053798, 0.10963173787000866,0.9902552746219031,0.0496978759765625,0.23602294921875,-0.960296630859375
20220123-1523,2022-01-23 15:23:33Z,u01, 111,40,movements,el-ex, rt, d,2881.004130291667, -0.07546448519551514, -0.15577873427371436, 2.9403707359344207, 0.06761928647756577, -0.20415762066841125, 0.9853887557983398, -0.07447994500398636, 0.155149444937706, -0.9850794076919556, 0.06831546127796173, 0.07846251130104065, 0.02154785394668579, 0.02960889303930215, -0.08113953402664259, 0.0971450642783635,0.9915152238074255,-0.0036773681640625,0.237762451171875,-0.9596099853515625
20220123-1523,2022-01-23 15:23:33Z,u01, 112,40,movements,el-ex, rt, d,2881.029076291667, -0.0762255958441241, -0.15505018993899888, 2.965576876045904, 0.15004205703735352, -0.17324165999889374, 1.0069516897201538, -0.07523826509714127, 0.15442968904972076, -0.9851348400115967, 0.06947050988674164, 0.05434097349643707, 0.01669001579284668, 0.031039854664013995, -0.08043073521042124, 0.08462706250691737,0.9926759363761403,-0.0055999755859375,0.2086181640625,-0.9693756103515625
20220123-1523,2022-01-23 15:23:33Z,u01, 113,40,movements,el-ex, rt, d,2881.054023291667, -0.07630041436249377, -0.15199029625803478, 2.9914299885936355, 0.24548208713531494, -0.163603276014328, 1.0157626867294312, -0.07534763962030411, 0.15140578150749207, -0.9855957627296448, 0.08471659570932388, 0.06581825017929077, 0.0020447373390197754, 0.032232899964077945, -0.07850576988413897, 0.0718522959568841,0.9937982809011302,0.0050201416015625,0.221282958984375,-0.985321044921875
20220123-1523,2022-01-23 15:23:33Z,u01, 114,40,movements,el-ex, rt, d,2881.078969291667, -0.07679857753630145, -0.14880228568567366, 3.0172079393034847, 0.14454998075962067, -0.18775209784507751, 1.000239610671997, -0.07587526738643646, 0.14825375378131866, -0.9860343337059021, 0.09169869124889374, 0.06172233819961548, 0.007091522216796875, 0.033593104176930504, -0.07651353889915194, 0.05908653988586193,0.9947491846996644,0.016143798828125,0.2093505859375,-0.97802734375
20220123-1523,2022-01-23 15:23:33Z,u01, 115,40,movements,el-ex, rt, d,2881.103915291667, -0.07768660954790632, -0.148555013644154, 3.0427449876026937, 0.03626951947808266, -0.18029803037643433, 1.0131092071533203, -0.07675370573997498, 0.14800921082496643, -0.9860031008720398, 0.08963217586278915, 0.05268953740596771, 0.040919482707977295, 0.03501572659564686, -0.0759759310001865, 0.046352042390325504,0.9954160162146255,0.0117034912109375,0.2021942138671875,-0.9510345458984375
20220123-1523,2022-01-23 15:23:33Z,u01, 116,40,movements,el-ex, rt, d,2881.128862291667, -0.07821219477663346, -0.15006750411800926, 3.0685507579392923, 0.026961104944348335, -0.17599622905254364, 1.0373202562332153, -0.07725434750318527, 0.1495048850774765, -0.9857383370399475, 0.09066687524318695, 0.054611846804618835, 0.04895550012588501, 0.036225099276207935, -0.0762796006485383, 0.03345342657961223,0.9958664201099243,0.013336181640625,0.2039031982421875,-0.93743896484375
20220123-1523,2022-01-23 15:23:33Z,u01, 117,40,movements,el-ex, rt, d,2881.153808291667, -0.07812241516945059, -0.1502994972919879, 3.0950249754492387, 0.12102009356021881, -0.1391599178314209, 1.0563002824783325, -0.07716313749551773, 0.1497342586517334, -0.9857106804847717, 0.07282969355583191, 0.06338514387607574, 0.05254411697387695, 0.03718386315235453, -0.07590804259799924, 0.02026718048875968,0.9962151504796858,-0.0031585693359375,0.2120819091796875,-0.931396484375
20220123-1523,2022-01-23 15:23:33Z,u01, 118,40,movements,el-ex, rt, d,2881.1787552916667, -0.07720151424593966, -0.14866888473045686, 3.1219552701789715, 0.15056343376636505, -0.11196458339691162, 1.0608398914337158, -0.0762740969657898, 0.14812183380126953, -0.9860234260559082, 0.07342074811458588, 0.061945825815200806, 0.026611804962158203, 0.03775410387202244, -0.07458496346200577, 0.006918253945156189,0.9964757656675689,-0.00244140625,0.2092742919921875,-0.961090087890625
20220123-1523,2022-01-23 15:23:33Z,u01, 119,40,movements,el-ex, rt, d,2881.2037012916667, -0.07611663998963827, -0.14770161759678782, -3.1341395003599026, 0.07374761998653412, -0.1421227604150772, 1.074083685874939, -0.07521519809961319, 0.14716516435146332, -0.9862479567527771, 0.09305276721715927, 0.05644802749156952, 0.0203666090965271, 0.03821991682117176, -0.07358834637679722, -0.0065211055774771765,0.9965347824484977,0.0172119140625,0.2027435302734375,-0.9621124267578125
20220123-1523,2022-01-23 15:23:33Z,u01, 120,40,movements,el-ex, rt, d,2881.228648291667, -0.07568708928050694, -0.14833650665310902, -3.1070894855741624, 0.03575606271624565, -0.14676403999328613, 1.0753527879714966, -0.07478446513414383, 0.14779311418533325, -0.9861868619918823, 0.07936214655637741, 0.05864293873310089, 0.025066256523132324, 0.039002253805822014, -0.0733853258905815, -0.019994113181542233,0.9963400695618323,0.004974365234375,0.207672119140625,-0.961700439453125
20220123-1523,2022-01-23 15:23:33Z,u01, 121,40,movements,el-ex, rt, d,2881.253594291667, -0.07568911423275687, -0.149639118760478, -3.0798347842128138, 0.00854907650500536, -0.17733100056648254, 1.0884089469909668, -0.07477184385061264, 0.149081289768219, -0.9859938621520996, 0.08859634399414062, 0.06152042746543884, 0.01620626449584961, 0.040017858839341836, -0.07349577125758623, -0.03359245970762767,0.9959259879300536,0.01409912109375,0.2128753662109375,-0.969512939453125
20220123-1523,2022-01-23 15:23:33Z,u01, 122,40,movements,el-ex, rt, d,2881.278540291667, -0.07609371943029591, -0.15170404130422346, -3.052000295964444, -0.020819533616304398, -0.19585634768009186, 1.1241124868392944, -0.07514721155166626, 0.1511228233575821, -0.9856544733047485, 0.06422194838523865, 0.05415356159210205, -0.0013450384140014648, 0.04128129307529948, -0.07395002754555592, -0.047499691918774845,0.9952743016397366,-0.01324462890625,0.2062225341796875,-0.98687744140625
20220123-1523,2022-01-23 15:23:33Z,u01, 123,40,movements,el-ex, rt, d,2881.303487291667, -0.07728735923705145, -0.15519032446259112, -3.02327259197968, -0.09718195348978043, -0.24674829840660095, 1.1595983505249023, -0.07628253102302551, 0.1545681357383728, -0.9850327968597412, 0.053562238812446594, 0.037524640560150146, -0.008512675762176514, 0.04303025901456869, -0.07504655048712676, -0.06189317796839136,0.9943267167537669,-0.0211944580078125,0.1890411376953125,-0.999359130859375
20220123-1523,2022-01-23 15:23:33Z,u01, 124,40,movements,el-ex, rt, d,2881.328433291667, -0.07917699864406312, -0.1605388973574401, -2.9941915142456095, -0.13453155755996704, -0.2576962113380432, 1.169777750968933, -0.07807724922895432, 0.15985019505023956, -0.9840487241744995, 0.0567607581615448, 0.056473538279533386, 0.02186000347137451, 0.0452432073529591, -0.07699804557579468, -0.07650415479367678,0.993061640772083,-0.02044677734375,0.2168731689453125,-0.959381103515625
20220123-1523,2022-01-23 15:23:33Z,u01, 125,40,movements,el-ex, rt, d,2881.353380291667, -0.08032968095323584, -0.16580984848032662, -2.9649503047449333, -0.08323957026004791, -0.2041620910167694, 1.1723976135253906, -0.07914277911186218, 0.16505113244056702, -0.9831045269966125, 0.06122899055480957, 0.06740117073059082, 0.05553799867630005, 0.047158630942157304, -0.07889100295056553, -0.09114474732718614,0.9915871112792479,-0.0155487060546875,0.2325439453125,-0.9327239990234375
20220123-1523,2022-01-23 15:23:33Z,u01, 126,40,movements,el-ex, rt, d,2881.378326625, -0.07963847737620493, -0.16903439102427376, -2.9352217731167496, 0.008769852109253407, -0.1522006243467331, 1.1918644905090332, -0.078420490026474, 0.1682305783033371, -0.9826233983039856, 0.06024728715419769, 0.07412466406822205, 0.04977726936340332, 0.04814386284327783, -0.07981529102607376, -0.10589605274549468,0.9899988381617555,-0.018341064453125,0.2428436279296875,-0.934600830078125
20220123-1523,2022-01-23 15:23:33Z,u01, 127,40,movements,el-ex, rt, d,2881.403273625, -0.07775589892884903, -0.169920190298204, -2.9049198832136267, 0.10021205246448517, -0.12129537016153336, 1.1976135969161987, -0.07655888050794601, 0.1691036820411682, -0.9826202988624573, 0.049459293484687805, 0.07431966066360474, 0.015960752964019775, 0.04846790394582056, -0.07962855091205001, -0.12082085772045378,0.9882876182342771,-0.0272064208984375,0.2406005859375,-0.9577789306640625
20220123-1523,2022-01-23 15:23:33Z,u01, 128,40,movements,el-ex, rt, d,2881.428219625, -0.07591618908586326, -0.1693769420806367, -2.874820325648122, 0.10352635383605957, -0.1435503363609314, 1.1644363403320312, -0.07475797086954117, 0.16856823861598969, -0.982850968837738, 0.07097381353378296, 0.08082129061222076, -0.002958357334136963, 0.048718331524421066, -0.07874673096782432, -0.13560039777136995,0.9864269138400683,-0.0009765625,0.2488555908203125,-0.98516845703125
20220123-1523,2022-01-23 15:23:33Z,u01, 129,40,movements,el-ex, rt, d,2881.453165625, -0.07525185186722591, -0.16988296815177245, -2.845876394087096, 0.03176091983914375, -0.18785741925239563, 1.12455153465271, -0.07409858703613281, 0.16906701028347015, -0.9828152060508728, 0.0877552181482315, 0.08752468228340149, -0.007190287113189697, 0.04956215165566542, -0.07833253641143915, -0.1498415007967475,0.984355133850113,0.015472412109375,0.2535552978515625,-0.99298095703125
20220123-1523,2022-01-23 15:23:33Z,u01, 130,40,movements,el-ex, rt, d,2881.478112625, -0.07546180477258638, -0.17201751464301895, -2.8177064369137734, -0.009688617661595345, -0.22279828786849976, 1.1151330471038818, -0.07427755743265152, 0.1711704283952713, -0.9824375510215759, 0.09327475726604462, 0.07339733839035034, -0.005508005619049072, 0.05093155287840534, -0.07865879096670723, -0.16372387126112597,0.9820454343912303,0.019195556640625,0.2429656982421875,-0.9894866943359375
20220123-1523,2022-01-23 15:23:33Z,u01, 131,40,movements,el-ex, rt, d,2881.503058625, -0.07636720533576108, -0.17383863222564114, -2.7897249500897874, 0.02961677685379982, -0.23059242963790894, 1.1010839939117432, -0.07514311373233795, 0.17296439409255981, -0.9820574522018433, 0.09560516476631165, 0.05771788954734802, -0.0012799501419067383, 0.05262621958342063, -0.07875123328068684, -0.17750256473562812,0.979551725360298,0.0199127197265625,0.233184814453125,-0.9900665283203125
20220123-1523,2022-01-23 15:23:33Z,u01, 132,40,movements,el-ex, rt, d,2881.5280056250003, -0.07742137841481887, -0.17612305279783214, -2.7617441047986846, -0.04749089106917381, -0.24085591733455658, 1.113857388496399, -0.07614757120609283, 0.17521393299102783, -0.9815812110900879, 0.08913281559944153, 0.0629604160785675, 0.0038895010948181152, 0.054448590558990144, -0.07902377529786983, -0.19125460351743798,0.9768379179442774,0.011199951171875,0.2379913330078125,-0.9766998291015625
20220123-1523,2022-01-23 15:23:33Z,u01, 133,40,movements,el-ex, rt, d,2881.5529516250003, -0.07843575138960916, -0.1808679136258079, -2.7340175908588145, -0.1431911438703537, -0.24440370500087738, 1.1024832725524902, -0.077077217400074, 0.17988339066505432, -0.9806635975837708, 0.039433784782886505, 0.045855000615119934, -0.007159888744354248, 0.05650262436596448, -0.08047148974191073, -0.20486558133295524,0.9738387580721312,-0.0345458984375,0.226776123046875,-0.9774627685546875
20220123-1523,2022-01-23 15:23:33Z,u01, 134,40,movements,el-ex, rt, d,2881.577898625, -0.07894507270304471, -0.18450759620752416, -2.706081831096508, 0.06419772654771805, -0.19698666036128998, 1.1171551942825317, -0.07752452790737152, 0.18346251547336578, -0.9799650311470032, 0.03219066560268402, 0.04943227767944336, -0.020828425884246826, 0.05825315133850852, -0.08138830400258308, -0.21850190092496616,0.9706902179726573,-0.04541015625,0.2345123291015625,-0.9982757568359375
20220123-1523,2022-01-23 15:23:33Z,u01, 135,40,movements,el-ex, rt, d,2881.602844625, -0.07872582068665324, -0.18171528495090997, -2.677516053991452, 0.2877592146396637, -0.21580874919891357, 1.1175322532653809, -0.07734965533018112, 0.1807168871164322, -0.9804888963699341, 0.061068519949913025, 0.06076860427856445, -0.04242986440658569, 0.058988989408011214, -0.07922032678678659, -0.2323106371863112,0.967613668698523,-0.0198974609375,0.2444610595703125,-1.0207061767578125
20220123-1523,2022-01-23 15:23:33Z,u01, 136,40,movements,el-ex, rt, d,2881.627791625, -0.07894583120098232, -0.17685203442950584, -2.6484369830225423, 0.2306215912103653, -0.23303762078285217, 1.1329131126403809, -0.07763376832008362, 0.17593158781528473, -0.9813363552093506, 0.07737435400485992, 0.024385690689086914, -0.028520822525024414, 0.059658247176200545, -0.07597833638696266, -0.2463232573975778,0.9643614537050985,1.52587890625e-05,0.1984405517578125,-1.007659912109375
20220123-1523,2022-01-23 15:23:33Z,u01, 137,40,movements,el-ex, rt, d,2881.652737625, -0.08053606601466666, -0.17643030073589672, -2.619685010912574, 0.004839558154344559, -0.3162047266960144, 1.134583592414856, -0.07920018583536148, 0.17551641166210175, -0.981285572052002, 0.08679905533790588, 0.029027551412582397, -0.0034709572792053223, 0.06145474981308496, -0.07470302225868836, -0.26021725258081396,0.9606923352381855,0.006072998046875,0.2085113525390625,-0.981597900390625
20220123-1523,2022-01-23 15:23:33Z,u01, 138,40,movements,el-ex, rt, d,2881.677683625, -0.08380559906208802, -0.17954345840302724, -2.5908394179059417, -0.033749278634786606, -0.33876872062683105, 1.1572872400283813, -0.08236195892095566, 0.1785803884267807, -0.9804720878601074, 0.08019520342350006, 0.022423535585403442, 0.006930828094482422, 0.06450549848557295, -0.07485310400722056, -0.274190793760113,0.9565853243443783,-0.00250244140625,0.201507568359375,-0.9718017578125
20220123-1523,2022-01-23 15:23:33Z,u01, 139,40,movements,el-ex, rt, d,2881.702630625, -0.08610965826618103, -0.18224896751753308, -2.561152772977843, 0.008135153912007809, -0.259111225605011, 1.1919511556625366, -0.08457894623279572, 0.18124175071716309, -0.9797948002815247, 0.07177680730819702, 0.007722973823547363, 0.03974658250808716, 0.06708671081883755, -0.07484636401736887, -0.2884645317776481,0.9522004170612333,-0.01275634765625,0.191741943359375,-0.9427337646484375
20220123-1523,2022-01-23 15:23:33Z,u01, 140,40,movements,el-ex, rt, d,2881.727576625, -0.08589281543956005, -0.1847773165785025, -2.530699151698255, 0.004870451986789703, -0.17958909273147583, 1.210035800933838, -0.08432690054178238, 0.18372765183448792, -0.9793534278869629, 0.06670298427343369, 0.014773830771446228, 0.04572916030883789, 0.06848927887380869, -0.0750500225703589, -0.3029382976699402,0.9475786241569497,-0.0178985595703125,0.1992645263671875,-0.933990478515625
20220123-1523,2022-01-23 15:23:33Z,u01, 141,40,movements,el-ex, rt, d,2881.7525236250003, -0.08405584251693819, -0.18662885922805625, -2.500047618929315, 0.08970814198255539, -0.14024056494235992, 1.199936032295227, -0.08249901235103607, 0.1855473518371582, -0.9791660308837891, 0.05974813550710678, 0.04510439932346344, -0.0044612884521484375, 0.06905234918658626, -0.07515825359407631, -0.3173660995059395,0.9427946855973747,-0.0218353271484375,0.2281341552734375,-0.9766998291015625
20220123-1523,2022-01-23 15:23:33Z,u01, 142,40,movements,el-ex, rt, d,2881.7774696250003, -0.08194925988231304, -0.18410441019137241, -2.46973138475705, 0.2964574992656708, -0.14938366413116455, 1.153350591659546, -0.08047422021627426, 0.18306615948677063, -0.97980135679245, 0.05598384141921997, 0.05225479602813721, -0.02581387758255005, 0.06878629675742129, -0.07326506863640153, -0.33153172576195766,0.93807646263019,-0.0240325927734375,0.23590087890625,-1.0059661865234375
20220123-1523,2022-01-23 15:23:33Z,u01, 143,40,movements,el-ex, rt, d,2881.802416625, -0.08098182947790743, -0.1780960799226549, -2.4407940277156652, 0.32533517479896545, -0.20165199041366577, 1.0844358205795288, -0.0796138346195221, 0.17715609073638916, -0.9809573888778687, 0.0762568861246109, 0.021604791283607483, -0.021361947059631348, 0.06837185556838171, -0.06961757514799584, -0.3450136237362548,0.9335117370576476,-0.0026092529296875,0.20294189453125,-1.004058837890625
20220123-1523,2022-01-23 15:23:33Z,u01, 144,40,movements,el-ex, rt, d,2881.827362625, -0.08124557608932331, -0.17395304456833316, -2.4133996705030003, 0.16452725231647491, -0.1951647847890854, 1.0560952425003052, -0.07993143796920776, 0.1730770766735077, -0.981659471988678, 0.07878700643777847, 0.014483839273452759, -0.01788276433944702, 0.06871413963993207, -0.06669811992988253, -0.35776287577781946,0.9288893096530022,9.1552734375e-05,0.1869354248046875,-0.9984893798828125
20220123-1523,2022-01-23 15:23:33Z,u01, 145,40,movements,el-ex, rt, d,2881.852308625, -0.08147363934221637, -0.17379320938521836, -2.386561704845315, 0.0533004030585289, -0.19597771763801575, 1.0554146766662598, -0.0801575630903244, 0.1729196459054947, -0.9816687703132629, 0.11436773836612701, 0.002251148223876953, 0.0067237019538879395, 0.06967925206644847, -0.06565380175170905, -0.37020208224160694,0.9240047088736204,0.0341339111328125,0.1727447509765625,-0.9792327880859375
20220123-1523,2022-01-23 15:23:33Z,u01, 146,40,movements,el-ex, rt, d,2881.877255625, -0.08142839404166767, -0.17429265898031898, -2.3596805654984228, 0.11231601983308792, -0.17101146280765533, 1.0651122331619263, -0.08010611683130264, 0.173411563038826, -0.9815861582756042, 0.10519152879714966, 0.013508513569831848, 0.003162086009979248, 0.07062847380198417, -0.06495017440938661, -0.38258710747729346,0.9189233956047934,0.022705078125,0.185394287109375,-0.98004150390625
20220123-1523,2022-01-23 15:23:33Z,u01, 147,40,movements,el-ex, rt, d,2881.902201625, -0.08036233700624736, -0.17267192882932378, -2.332501055610316, 0.1734386682510376, -0.1491718739271164, 1.0687899589538574, -0.07908210158348083, 0.1718151569366455, -0.9819498658180237, 0.07863955199718475, 0.007078796625137329, -0.02027791738510132, 0.07070266202993711, -0.06345227173808984, -0.3950030263700446,0.9137547029279403,-0.00140380859375,0.1824798583984375,-0.999755859375
20220123-1523,2022-01-23 15:23:33Z,u01, 148,40,movements,el-ex, rt, d,2881.927148625, -0.07984698504865466, -0.1712991187382436, -2.3048617487431855, 0.09973148256540298, -0.17928862571716309, 1.099133849143982, -0.07859478145837784, 0.17046259343624115, -0.982224702835083, 0.07059913128614426, -0.017829030752182007, -0.03497195243835449, 0.07106328347962132, -0.06194883800335434, -0.4075755442872159,0.9082921352630715,-0.010009765625,0.15277099609375,-1.0169219970703125
20220123-1523,2022-01-23 15:23:34Z,u01, 149,40,movements,el-ex, rt, d,2881.952094625, -0.0794759583121223, -0.1712558406824306, -2.2768800641292244, 0.10533358156681061, -0.1736437976360321, 1.1021058559417725, -0.07823093235492706, 0.17041994631290436, -0.9822611212730408, 0.03636077791452408, 0.007711037993431091, -0.018379688262939453, 0.07174662803078614, -0.061006933626470757, -0.42023176339170826,0.9025165026390655,-0.0401458740234375,0.1756439208984375,-1.0030364990234375
20220123-1523,2022-01-23 15:23:34Z,u01, 150,40,movements,el-ex, rt, d,2881.9770416250003, -0.07891815134280301, -0.16895658866525132, -2.249116561900302, 0.2482895851135254, -0.15733426809310913, 1.0652151107788086, -0.07771369069814682, 0.16815388202667236, -0.9826926589012146, 0.05033937096595764, 0.046689778566360474, -0.0290413498878479, 0.07184601043613606, -0.059091651461404715, -0.4327038965833243,0.896723876225447,-0.0253753662109375,0.215576171875,-1.0106048583984375
20220123-1523,2022-01-23 15:23:34Z,u01, 151,40,movements,el-ex, rt, d,2882.0019876250003, -0.07859874403104161, -0.1646800947586793, -2.221947395160077, 0.2058008909225464, -0.20193621516227722, 1.047729730606079, -0.0774555653333664, 0.1639367640018463, -0.9834253191947937, 0.08497809618711472, 0.022800207138061523, -0.0203893780708313, 0.07156120263312457, -0.05627014999475423, -0.44483994625185563,0.8909714931663304,0.00616455078125,0.192596435546875,-1.000579833984375
20220123-1523,2022-01-23 15:23:34Z,u01, 152,40,movements,el-ex, rt, d,2882.026934625, -0.07976266100782488, -0.16412036139387975, -2.1953678016509177, -0.008528677746653557, -0.2427472174167633, 1.0471726655960083, -0.07860743254423141, 0.1633845716714859, -0.9834257960319519, 0.05994588881731033, -0.003609895706176758, -0.014270126819610596, 0.07269151393512148, -0.05479991790486452, -0.45667380298716764,0.8849644248559642,-0.021270751953125,0.1599273681640625,-0.9967041015625
20220123-1523,2022-01-23 15:23:34Z,u01, 153,40,movements,el-ex, rt, d,2882.051880625, -0.0817330997618335, -0.16751330468267012, -2.1688728672645268, -0.06023251637816429, -0.2692550718784332, 1.0497642755508423, -0.08049933612346649, 0.16673098504543304, -0.9827108383178711, 0.051004037261009216, 0.03445605933666229, -0.021714210510253906, 0.07506137798128068, -0.054866731922354015, -0.4684051753876195,0.8786080405338285,-0.034210205078125,0.195098876953125,-1.00482177734375
20220123-1523,2022-01-23 15:23:34Z,u01, 154,40,movements,el-ex, rt, d,2882.076826625, -0.08401890589608327, -0.17047580117016123, -2.142982937603557, -0.005422266200184822, -0.26503902673721313, 0.999350368976593, -0.082703597843647, 0.16965126991271973, -0.9820277690887451, 0.054657891392707825, 0.03388562798500061, -0.005109071731567383, 0.07746389896774042, -0.05463930849592084, -0.47979503559063236,0.8722446035993816,-0.0295867919921875,0.2032470703125,-0.9864044189453125
20220123-1523,2022-01-23 15:23:34Z,u01, 155,40,movements,el-ex, rt, d,2882.101773625, -0.08630470300634345, -0.17207693777717076, -2.1186825353769234, 0.03675328195095062, -0.2514781951904297, 0.9380418062210083, -0.08492457121610641, 0.17122897505760193, -0.9815642833709717, 0.03528766334056854, 0.03329974412918091, 0.00996088981628418, 0.07949960218366939, -0.05382999108940382, -0.4904149157286814,0.8661844227911325,-0.0459136962890625,0.2072601318359375,-0.9732666015625
20220123-1523,2022-01-23 15:23:34Z,u01, 156,40,movements,el-ex, rt, d,2882.126719625, -0.08848806150176315, -0.17263768883343275, -2.09504430567257, 0.09158127754926682, -0.24456030130386353, 0.9245314002037048, -0.08705897629261017, 0.17178142070770264, -0.9812807440757751, 0.024238474667072296, 0.0342121422290802, -0.0040860772132873535, 0.08120794325561999, -0.052582359122183994, -0.5006739148825553,0.8602126951282185,-0.062957763671875,0.2061309814453125,-0.9852294921875
20220123-1523,2022-01-23 15:23:34Z,u01, 157,40,movements,el-ex, rt, d,2882.151666625, -0.09024234776129514, -0.1722534292486912, -2.071642285549483, 0.07893452048301697, -0.23359248042106628, 0.9229211211204529, -0.08878622949123383, 0.17140285670757294, -0.9811921715736389, 0.05675797164440155, 0.0106496661901474, 0.000876009464263916, 0.08247009857632956, -0.05101570136029554, -0.5107508497851276,0.8542420764164005,-0.03350830078125,0.1861724853515625,-0.978607177734375
20220123-1523,2022-01-23 15:23:34Z,u01, 158,40,movements,el-ex, rt, d,2882.176612625, -0.09152348813805614, -0.17246254815325124, -2.047892134934354, 0.09388907253742218, -0.19049087166786194, 0.9405288100242615, -0.090039923787117, 0.17160888016223907, -0.9810419082641602, 0.02378620207309723, 0.014777138829231262, 0.008248329162597656, 0.08366710394122272, -0.04978822342794353, -0.5208902193540513,0.848053269682979,-0.0677947998046875,0.1876983642578125,-0.973236083984375
20220123-1523,2022-01-23 15:23:34Z,u01, 159,40,movements,el-ex, rt, d,2882.2015596250003, -0.09163342856436356, -0.170843566500533, -2.0239891995118855, 0.16664326190948486, -0.17031563818454742, 0.9198583364486694, -0.09017308801412582, 0.1700136959552765, -0.9813073873519897, 0.07454802095890045, 0.05129969120025635, -0.005783677101135254, 0.08387798292548887, -0.048070754809855204, -0.5309963946310164,0.8418411812043477,-0.0281982421875,0.2215728759765625,-0.9841156005859375
20220123-1523,2022-01-23 15:23:34Z,u01, 160,40,movements,el-ex, rt, d,2882.2265056250003, -0.09243264049411717, -0.16894897644408033, -2.0008792649684763, 0.1389060616493225, -0.2169419825077057, 0.8841597437858582, -0.09098690003156662, 0.16814638674259186, -0.9815539717674255, 0.09106311947107315, 0.04028859734535217, -0.018095076084136963, 0.08425579186540391, -0.04608667287636628, -0.5407135323892249,0.8357067728311693,-0.0017852783203125,0.2090911865234375,-0.999755859375
20220123-1523,2022-01-23 15:23:34Z,u01, 161,40,movements,el-ex, rt, d,2882.2514516250003, -0.09455371654723634, -0.16780099105297516, -1.9787055462488012, 0.09650249779224396, -0.25554564595222473, 0.8560066223144531, -0.09308680146932602, 0.16701462864875793, -0.9815502762794495, 0.05542804300785065, 0.0332721471786499, -0.022600114345550537, 0.08532951578260428, -0.0440877698323203, -0.5499969973703951,0.8296255104773773,-0.0390777587890625,0.2058258056640625,-1.0044708251953125
20220123-1523,2022-01-23 15:23:34Z,u01, 162,40,movements,el-ex, rt, d,2882.276398625, -0.09741431258005842, -0.16821982759090423, -1.9572976256304495, 0.03635900095105171, -0.259743332862854, 0.8298868536949158, -0.09588742256164551, 0.16742756962776184, -0.9812102913856506, 0.06514088809490204, 0.00481356680393219, -0.013479650020599365, 0.08709019542336527, -0.04254596751673092, -0.5589053430895545,0.823547143228619,-0.0304412841796875,0.1711883544921875,-0.99432373046875
20220123-1523,2022-01-23 15:23:34Z,u01, 163,40,movements,el-ex, rt, d,2882.301344625, -0.10017193280318949, -0.16886424521211682, -1.9361234388198763, 0.09277607500553131, -0.23763161897659302, 0.8411656022071838, -0.09858205169439316, 0.16806285083293915, -0.9808345437049866, 0.036280348896980286, 0.007764086127281189, 0.008681833744049072, 0.0888436175254017, -0.041103852721482356, -0.5676475794201228,0.8174310223086196,-0.0584259033203125,0.17572021484375,-0.973602294921875
20220123-1523,2022-01-23 15:23:34Z,u01, 164,40,movements,el-ex, rt, d,2882.326291625, -0.101919954829819, -0.16696819536787583, -1.9141384488586637, 0.209721177816391, -0.21017077565193176, 0.8734151124954224, -0.10032866150140762, 0.16619347035884857, -0.9809759855270386, 0.057054661214351654, 0.007634580135345459, 0.012805819511413574, 0.08945894130739299, -0.038847187277051165, -0.576639977813633,0.8111561761757836,-0.04248046875,0.1753387451171875,-0.968170166015625
20220123-1523,2022-01-23 15:23:34Z,u01, 165,40,movements,el-ex, rt, d,2882.351237625, -0.10295281453722258, -0.1639482651004788, -1.8911499135919867, 0.18948869407176971, -0.18436454236507416, 0.9088183045387268, -0.10139293968677521, 0.1632147878408432, -0.9813665747642517, 0.06425296515226364, -0.0007392913103103638, 0.014615535736083984, 0.08944063349151932, -0.03629150329338263, -0.58595489297321,0.8045744978693262,-0.034027099609375,0.1601409912109375,-0.96795654296875
20220123-1523,2022-01-23 15:23:34Z,u01, 166,40,movements,el-ex, rt, d,2882.376184041667, -0.10415424436288037, -0.16275510724396205, -1.8675807947528908, 0.10806381702423096, -0.21632367372512817, 0.9357512593269348, -0.10259208083152771, 0.16203752160072327, -0.981437087059021, 0.07422590255737305, 0.008570924401283264, 0.003196120262145996, 0.08999007341272112, -0.03439848107210579, -0.595420638334541,0.7976169285859986,-0.0272216796875,0.1703643798828125,-0.978057861328125
20220123-1523,2022-01-23 15:23:34Z,u01, 167,40,movements,el-ex, rt, d,2882.401130041667, -0.10584229854189223, -0.16289618360998348, -1.843779398522702, 0.07478292286396027, -0.2291085124015808, 0.9372348189353943, -0.10424623638391495, 0.1621767282485962, -0.9812397360801697, 0.06771662086248398, 0.03882724046707153, 0.025627553462982178, 0.09110239105270249, -0.032870704844516825, -0.6048978832739614,0.7903913097077757,-0.03460693359375,0.1965789794921875,-0.9595947265625
20220123-1523,2022-01-23 15:23:34Z,u01, 168,40,movements,el-ex, rt, d,2882.4260770416668, -0.10748468432469094, -0.1635786738353394, -1.8207114169879666, 0.05807714909315109, -0.21654032170772552, 0.8906006813049316, -0.10584577172994614, 0.16285014152526855, -0.9809569120407104, 0.06934666633605957, 0.04909434914588928, 0.022888123989105225, 0.09232587959123865, -0.03158269123778112, -0.6139970669308008,0.7832534666221234,-0.03570556640625,0.2119140625,-0.9582366943359375
20220123-1523,2022-01-23 15:23:34Z,u01, 169,40,movements,el-ex, rt, d,2882.4510230416668, -0.10937878993292852, -0.1650951216034429, -1.7984436975701128, 0.007366797886788845, -0.22891050577163696, 0.8807122707366943, -0.10767653584480286, 0.16434615850448608, -0.9805080890655518, 0.0737561583518982, 0.04321908950805664, 0.03615689277648926, 0.09387383096144565, -0.030555886026957482, -0.6227018080141621,0.7762064462999524,-0.02886962890625,0.206085205078125,-0.9487457275390625
20220123-1523,2022-01-23 15:23:34Z,u01, 170,40,movements,el-ex, rt, d,2882.4759690416668, -0.11062050027216576, -0.16557452489284719, -1.7764041701994828, 0.18760527670383453, -0.14093777537345886, 0.8488541841506958, -0.1088852509856224, 0.16481903195381165, -0.9802951812744141, 0.05171048641204834, 0.06748069822788239, 0.03527265787124634, 0.09483205544328979, -0.02931344636921663, -0.6312334584711226,0.769215132883077,-0.0579833984375,0.2349395751953125,-0.94293212890625
20220123-1523,2022-01-23 15:23:34Z,u01, 171,40,movements,el-ex, rt, d,2882.5009160416666, -0.11008419812014496, -0.16223313182763205, -1.7546847036662812, 0.21350149810314178, -0.11051801592111588, 0.8325884938240051, -0.10841939598321915, 0.16152241826057434, -0.9808954000473022, 0.09010876715183258, 0.022620588541030884, 0.039718031883239746, 0.09388345092472458, -0.027169984962504223, -0.6395588026261826,0.7625039420702865,-0.021270751953125,0.1935882568359375,-0.9402923583984375
20220123-1523,2022-01-23 15:23:34Z,u01, 172,40,movements,el-ex, rt, d,2882.5258620416666, -0.1096610394982199, -0.16127750773641283, -1.733031944420297, 0.07265845686197281, -0.14748862385749817, 0.8694393634796143, -0.10802115499973297, 0.16057926416397095, -0.9810941219329834, 0.0708048865199089, 0.022602424025535583, 0.020278751850128174, 0.09370594988515495, -0.025925288582088098, -0.6477758079949884,0.7556014628719654,-0.0392303466796875,0.1828155517578125,-0.9612274169921875
20220123-1523,2022-01-23 15:23:34Z,u01, 173,40,movements,el-ex, rt, d,2882.550809041667, -0.10938057097212531, -0.16115928899532672, -1.7103303582009481, 0.18427398800849915, -0.11136669665575027, 0.9069123268127441, -0.10774805396795273, 0.16046258807182312, -0.9811432957649231, 0.043371133506298065, 0.0664660632610321, 0.0016205906867980957, 0.09385085346379533, -0.024907472197100315, -0.6563077802135012,0.7482190507851808,-0.064544677734375,0.2192535400390625,-0.9785308837890625
20220123-1523,2022-01-23 15:23:34Z,u01, 174,40,movements,el-ex, rt, d,2882.575755041667, -0.10761626510128502, -0.15643416237651547, -1.6865630145117554, 0.3368355929851532, -0.05503232032060623, 0.9119068384170532, -0.10609710961580276, 0.15579691529273987, -0.9820746779441833, 0.060107022523880005, 0.07068923115730286, 0.025791168212890625, 0.0919306605079674, -0.02261417563010884, -0.6651614051963401,0.7406737902804948,-0.043609619140625,0.224334716796875,-0.9544830322265625
20220123-1523,2022-01-23 15:23:34Z,u01, 175,40,movements,el-ex, rt, d,2882.600702041667, -0.10565819264297012, -0.15184065024724638, -1.6626494177325595, 0.2032020092010498, -0.09855397045612335, 0.9550007581710815, -0.10424830764532089, 0.15125785768032074, -0.9829818606376648, 0.11674516648054123, 0.03563174605369568, 0.022563159465789795, 0.08994298809108564, -0.020477418997164373, -0.6739780788098617,0.7329697018805252,0.007568359375,0.1918487548828125,-0.95538330078125
20220123-1523,2022-01-23 15:23:34Z,u01, 176,40,movements,el-ex, rt, d,2882.625648041667, -0.10445925803669578, -0.15156076222233472, -1.6370476989584328, 0.02501869574189186, -0.10664065927267075, 1.048829197883606, -0.10307411104440689, 0.15098118782043457, -0.9831482172012329, 0.09813016653060913, 0.020680144429206848, 0.04964601993560791, 0.08966872785384569, -0.019631919370475266, -0.6832954229181284,0.7243490358343875,-0.00830078125,0.1718292236328125,-0.931732177734375
20220123-1523,2022-01-23 15:23:34Z,u01, 177,40,movements,el-ex, rt, d,2882.650594041667, -0.10223360737899052, -0.15446941738091308, -1.6102050893500193, -0.0033064186573028564, -0.04138548672199249, 1.0739028453826904, -0.10084047168493271, 0.15385586023330688, -0.9829341769218445, 0.02813224494457245, 0.045683279633522034, 0.04851645231246948, 0.09012782438567671, -0.020245771050025323, -0.6929108723007009,0.7150816074339776,-0.0702056884765625,0.19403076171875,-0.926849365234375
20220123-1523,2022-01-23 15:23:34Z,u01, 178,40,movements,el-ex, rt, d,2882.6755410416667, -0.09871474100250281, -0.1563662332776115, -1.5831225407729386, 0.050921499729156494, -0.03509383648633957, 1.078365683555603, -0.09735210239887238, 0.15572981536388397, -0.9829907417297363, 0.050492264330387115, 0.05279676616191864, 0.004932880401611328, 0.08981312987593089, -0.02093397842851889, -0.7024770700898386,0.705706286552404,-0.0449676513671875,0.2082977294921875,-0.9803009033203125
20220123-1523,2022-01-23 15:23:34Z,u01, 179,40,movements,el-ex, rt, d,2882.7004870416667, -0.0955922894341634, -0.1576961145884053, -1.555634222475847, 0.039500266313552856, -0.0712323933839798, 1.1040812730789185, -0.09426243603229523, 0.15704332292079926, -0.9830828905105591, 0.04642605036497116, 0.05976875126361847, -0.014460384845733643, 0.08947565023881125, -0.021275792484382272, -0.7120631680447007,0.6960656658678978,-0.04559326171875,0.2135467529296875,-0.995391845703125
20220123-1523,2022-01-23 15:23:34Z,u01, 180,40,movements,el-ex, rt, d,2882.7254340416666, -0.09337497546810003, -0.1589174411094922, -1.5277297055610766, 0.06143150106072426, -0.10366151481866837, 1.0898351669311523, -0.09206445515155792, 0.1582493782043457, -0.9830977916717529, 0.052879780530929565, 0.058455899357795715, -0.00960850715637207, 0.08944069872940183, -0.021247742901080835, -0.7216673551817432,0.6861085654055071,-0.037750244140625,0.21832275390625,-0.9926910400390625
20220123-1523,2022-01-23 15:23:34Z,u01, 181,40,movements,el-ex, rt, d,2882.7503800416666, -0.0919977741551779, -0.1601136650101164, -1.5007933936241795, 0.04365336894989014, -0.13395217061042786, 1.0387320518493652, -0.09069298952817917, 0.15943041443824768, -0.9830344319343567, 0.06989516317844391, 0.08344367146492004, -0.005109429359436035, 0.089687120607917, -0.020952236363842254, -0.7308123274419807,0.6763362054947185,-0.0178680419921875,0.2408599853515625,-0.98529052734375
20220123-1523,2022-01-23 15:23:34Z,u01, 182,40,movements,el-ex, rt, d,2882.775327041667, -0.0918748575747846, -0.16096294116996057, -1.4746766464973118, 0.11095497757196426, -0.18718916177749634, 1.036377191543579, -0.0905596986413002, 0.16026876866817474, -0.9829103946685791, 0.044172875583171844, 0.06795690953731537, -0.0325162410736084, 0.09022404836509115, -0.02011021145562586, -0.739568137452675,0.6667038696186295,-0.0474090576171875,0.2249298095703125,-1.01702880859375
20220123-1523,2022-01-23 15:23:34Z,u01, 183,40,movements,el-ex, rt, d,2882.800273041667, -0.09191606471987399, -0.16005270580145675, -1.4480678671243252, 0.12755060195922852, -0.16892412304878235, 1.0527533292770386, -0.09061355888843536, 0.15937024354934692, -0.9830515384674072, 0.06011113524436951, 0.07022872567176819, -0.024440526962280273, 0.09015875976171493, -0.0185912251811935, -0.7483864404952578,0.6568435421824437,-0.0380401611328125,0.225677490234375,-1.0115203857421875
20220123-1523,2022-01-23 15:23:34Z,u01, 184,40,movements,el-ex, rt, d,2882.825220041667, -0.09203020296927071, -0.1594154558502199, -1.4206490967662269, 0.12841732800006866, -0.19270563125610352, 1.1019823551177979, -0.09073507785797119, 0.15874110162258148, -0.9831421375274658, 0.09165050089359283, 0.05602632462978363, -0.0004394054412841797, 0.09020227102726905, -0.01710250103116572, -0.7573314803389252,0.6465446942793142,0.001678466796875,0.213653564453125,-0.9824676513671875
20220123-1523,2022-01-23 15:23:34Z,u01, 185,40,movements,el-ex, rt, d,2882.850166041667, -0.09220303797472343, -0.1585367653385771, -1.3919875713046808, 0.13778522610664368, -0.1903165727853775, 1.1509695053100586, -0.09091780334711075, 0.1578734964132309, -0.9832649230957031, 0.11337863653898239, 0.07183229923248291, 0.001102447509765625, 0.09015830965721244, -0.015460145463230417, -0.7665340966425942,0.6356555488548035,0.0185546875,0.222564697265625,-0.9795379638671875
20220123-1523,2022-01-23 15:23:34Z,u01, 186,40,movements,el-ex, rt, d,2882.875112041667, -0.09279237231894387, -0.15810478058310468, -1.362711031539079, 0.11911420524120331, -0.22878247499465942, 1.1514158248901367, -0.0915035679936409, 0.15744690597057343, -0.9832789897918701, 0.13152727484703064, 0.09270565211772919, -0.019681215286254883, 0.09039237074880649, -0.013774103189280826, -0.775767570419214,0.6243589646872424,0.040802001953125,0.2495269775390625,-1.00457763671875
20220123-1523,2022-01-23 15:23:34Z,u01, 187,40,movements,el-ex, rt, d,2882.9000590416667, -0.09456406083809543, -0.15743313091799765, -1.3336380797713758, 0.13049708306789398, -0.28821784257888794, 1.1344003677368164, -0.09325545281171799, 0.1567835956811905, -0.9832203984260559, 0.11373264342546463, 0.08093304932117462, -0.008509337902069092, 0.09086404375530203, -0.01155571983367184, -0.7847829408567074,0.6129647740911142,0.022125244140625,0.2384490966796875,-0.9975128173828125
20220123-1523,2022-01-23 15:23:35Z,u01, 188,40,movements,el-ex, rt, d,2882.9250050416667, -0.09768363189278033, -0.1576110571808541, -1.305090362615914, 0.04248134419322014, -0.3402906358242035, 1.1129257678985596, -0.09631949663162231, 0.15695932507514954, -0.9828969240188599, 0.12087078392505646, 0.05236072838306427, -0.0023936033248901367, 0.09202831009940217, -0.009074033572244865, -0.793464244118532,0.6015504352045411,0.02520751953125,0.20867919921875,-0.98907470703125
20220123-1523,2022-01-23 15:23:35Z,u01, 189,40,movements,el-ex, rt, d,2882.9499520416666, -0.10164160594181486, -0.16048526203938437, -1.2765549999029322, -0.03748316317796707, -0.33656227588653564, 1.1588889360427856, -0.10016282647848129, 0.15979725122451782, -0.982055127620697, 0.13151952624320984, 0.044456884264945984, 0.02720588445663452, 0.09446174261966715, -0.007030124936215282, -0.8019314769948868,0.5898588062440369,0.030731201171875,0.2064971923828125,-0.961456298828125
20220123-1523,2022-01-23 15:23:35Z,u01, 190,40,movements,el-ex, rt, d,2882.9748980416666, -0.10465238181729943, -0.16480206977723078, -1.2472001073153651, -0.059392593801021576, -0.279498428106308, 1.1860510110855103, -0.10304609686136246, 0.16405709087848663, -0.98105388879776, 0.1140475794672966, 0.04625479876995087, 0.058034539222717285, 0.09716340566727057, -0.0056848132845973495, -0.8104336132540618,0.5776887980944337,0.0096893310546875,0.211578369140625,-0.921417236328125
20220123-1523,2022-01-23 15:23:35Z,u01, 191,40,movements,el-ex, rt, d,2882.999845041667, -0.10563106364026342, -0.16909430069740145, -1.2175333944014883, -0.017032749950885773, -0.1912737786769867, 1.1836978197097778, -0.10393097996711731, 0.16828963160514832, -0.9802433252334595, 0.04909078776836395, 0.04348708689212799, 0.04684793949127197, 0.09926039448488257, -0.0050712920052194185, -0.8188331702552889,0.565361781968277,-0.0455322265625,0.2126007080078125,-0.9296417236328125
20220123-1523,2022-01-23 15:23:35Z,u01, 192,40,movements,el-ex, rt, d,2883.024791041667, -0.10433420495088878, -0.1704392473411682, -1.1871397127092185, 0.16864852607250214, -0.12666556239128113, 1.2292360067367554, -0.10263599455356598, 0.1696152538061142, -0.9801512956619263, 0.030828021466732025, 0.0425734668970108, 0.01935112476348877, 0.09952051253595426, -0.004475516284741739, -0.8272998446596731,0.5528567859918447,-0.0714263916015625,0.2125701904296875,-0.9622650146484375
20220123-1523,2022-01-23 15:23:35Z,u01, 193,40,movements,el-ex, rt, d,2883.049737041667, -0.10162934641861063, -0.1672830641461057, -1.1545685740577356, 0.31140822172164917, -0.1107659563422203, 1.2929571866989136, -0.10003826767206192, 0.16650395095348358, -0.9809529781341553, 0.06375275552272797, 0.044952332973480225, -0.0034372806549072266, 0.09753847112568445, -0.0031224045913316803, -0.8362564646171194,0.5395846674319937,-0.04150390625,0.210845947265625,-0.984375
20220123-1523,2022-01-23 15:23:35Z,u01, 194,40,movements,el-ex, rt, d,2883.074684041667, -0.099390183605713, -0.1639621018257136, -1.1212153258181983, 0.1859123408794403, -0.16220304369926453, 1.2993628978729248, -0.09789583086967468, 0.16322843730449677, -0.9817193746566772, 0.08988486230373383, 0.042124345898628235, 0.002715468406677246, 0.09559236979502118, -0.0015570905557568734, -0.8452084382589119,0.525815830469661,-0.0076751708984375,0.2058868408203125,-0.9795074462890625
20220123-1523,2022-01-23 15:23:35Z,u01, 195,40,movements,el-ex, rt, d,2883.099630041667, -0.0987729598951756, -0.16464030407895897, -1.0884763407030191, 0.03426216170191765, -0.2273169457912445, 1.2812085151672363, -0.09727893024682999, 0.16389751434326172, -0.9816691875457764, 0.10618995875120163, 0.06094074249267578, 0.008478939533233643, 0.09573512915035946, -0.0004315596276867218, -0.853686994348113,0.5119111816211405,0.0063629150390625,0.2250518798828125,-0.9767913818359375
20220123-1523,2022-01-23 15:23:35Z,u01, 196,40,movements,el-ex, rt, d,2883.1245770416667, -0.09954566011920384, -0.16749511936705586, -1.056162504549236, 0.005921500734984875, -0.2502669394016266, 1.273529291152954, -0.09799054265022278, 0.16671304404735565, -0.9811241626739502, 0.10009615123271942, 0.06264181435108185, 0.030715227127075195, 0.09714624277578582, 0.0007272293684664564, -0.8617791619968055,0.4978942815390076,0.0011138916015625,0.2305755615234375,-0.9501495361328125
20220123-1523,2022-01-23 15:23:35Z,u01, 197,40,movements,el-ex, rt, d,2883.1495230416667, -0.10003104189779986, -0.17044983404802228, -1.024186469946491, 0.0018280232325196266, -0.2197701334953308, 1.2798874378204346, -0.09841712564229965, 0.1696256846189499, -0.980582058429718, 0.09922574460506439, 0.04057939350605011, 0.05362594127655029, 0.09851825938151917, 0.0017654418335700597, -0.869556021900299,0.4839043325728609,-0.0001373291015625,0.21337890625,-0.927825927734375
20220123-1523,2022-01-23 15:23:35Z,u01, 198,40,movements,el-ex, rt, d,2883.174470041667, -0.09978563073286625, -0.17419728629406006, -0.9917391210957794, -0.041488222777843475, -0.19693712890148163, 1.3041844367980957, -0.09811246395111084, 0.17331762611865997, -0.9799668192863464, 0.09472490847110748, 0.03124171495437622, 0.030534446239471436, 0.10005507377651557, 0.002361647965284869, -0.8771950382429736,0.4695874390075013,-0.004913330078125,0.205810546875,-0.950714111328125
20220123-1523,2022-01-23 15:23:35Z,u01, 199,40,movements,el-ex, rt, d,2883.199416041667, -0.09836337381214896, -0.1782980216017171, -0.9586465609865569, -0.014662470668554306, -0.15626880526542664, 1.3301260471343994, -0.09664799273014069, 0.1773548275232315, -0.9793898463249207, 0.06669488549232483, 0.037504181265830994, 0.018147170543670654, 0.10148467874184597, 0.0024388938068576685, -0.8847334522730527,0.4549083121755152,-0.0279388427734375,0.2145538330078125,-0.95989990234375
20220123-1523,2022-01-23 15:23:35Z,u01, 200,40,movements,el-ex, rt, d,2883.224362041667, -0.09573036167526826, -0.18060384093501944, -0.9250880439375796, 0.08941785991191864, -0.11806122958660126, 1.3066761493682861, -0.09402957558631897, 0.17962361872196198, -0.9792312383651733, 0.05553154647350311, 0.05006694793701172, -0.01103365421295166, 0.10187435158149499, 0.00245043729088296, -0.8921784178113276,0.44003773963731585,-0.0388946533203125,0.23089599609375,-0.9924163818359375
20220123-1523,2022-01-23 15:23:35Z,u01, 201,40,movements,el-ex, rt, d,2883.249309041667, -0.09258335060218674, -0.18036413243794122, -0.8925266874760938, 0.16136661171913147, -0.12070281058549881, 1.2497632503509521, -0.09095144271850586, 0.17938780784606934, -0.9795651435852051, 0.07277812063694, 0.04979921877384186, -0.04336881637573242, 0.10104403260418585, 0.0027455969886817384, -0.8992366541227174,0.42562412735957966,-0.0218048095703125,0.230255126953125,-1.0188446044921875
20220123-1523,2022-01-23 15:23:35Z,u01, 202,40,movements,el-ex, rt, d,2883.274255041667, -0.09097271225232252, -0.17916537809193986, -0.8609761245270857, 0.13768914341926575, -0.2010069042444229, 1.2160764932632446, -0.08939307183027267, 0.1782083809375763, -0.9799237847328186, 0.08927088975906372, 0.046401023864746094, -0.05407273769378662, 0.10011590225829846, 0.0038607858051100535, -0.9058796197683359,0.4115143180441072,0.0001220703125,0.2238311767578125,-1.033416748046875
20220123-1523,2022-01-23 15:23:35Z,u01, 203,40,movements,el-ex, rt, d,2883.299202041667, -0.09086657588137884, -0.17903494248271581, -0.8303793317827012, 0.10853632539510727, -0.21861518919467926, 1.1905437707901, -0.08929117023944855, 0.1780800223350525, -0.9799564480781555, 0.07302519679069519, 0.029683679342269897, -0.022317111492156982, 0.09996475373527428, 0.0053699026177489746, -0.9120733231374498,0.3976185531256341,-0.01361083984375,0.20751953125,-1.006256103515625
20220123-1523,2022-01-23 15:23:35Z,u01, 204,40,movements,el-ex, rt, d,2883.324148041667, -0.09050739205130844, -0.17849038761472558, -0.8002002344966054, 0.15044455230236053, -0.18103864789009094, 1.17800772190094, -0.08894792944192886, 0.17754414677619934, -0.9800848364830017, 0.0742536187171936, 0.03215742111206055, -0.006289005279541016, 0.09955433358503432, 0.006819329329470885, -0.9179878781188258,0.3838497357512525,-0.0144500732421875,0.2094573974609375,-0.9842529296875
20220123-1523,2022-01-23 15:23:35Z,u01, 205,40,movements,el-ex, rt, d,2883.3490950416667, -0.08937248108750377, -0.17695363635841524, -0.7701809754599066, 0.18495836853981018, -0.15982012450695038, 1.1674138307571411, -0.08785981684923172, 0.17603160440921783, -0.980455756187439, 0.08134421706199646, 0.027184993028640747, -0.00478893518447876, 0.09852333255068195, 0.008078683721630781, -0.9237005952240613,0.3701419913506024,-0.0057830810546875,0.19873046875,-0.9831085205078125
20220123-1523,2022-01-23 15:23:35Z,u01, 206,40,movements,el-ex, rt, d,2883.3740418750003, -0.08787161276372714, -0.17499665072648415, -0.7406866414065035, 0.16154786944389343, -0.14498651027679443, 1.1445797681808472, -0.08641824871301651, 0.17410483956336975, -0.9809278249740601, 0.08386993408203125, 0.02534283697605133, 0.0011152029037475586, 0.09721956668420129, 0.009189451359463105, -0.9291299177930386,0.35662501883105663,-0.0022430419921875,0.197418212890625,-0.9786376953125
20220123-1523,2022-01-23 15:23:35Z,u01, 207,40,movements,el-ex, rt, d,2883.3989878750003, -0.08650501237256504, -0.17367365046880695, -0.7113308068051856, 0.15847183763980865, -0.14704346656799316, 1.1486247777938843, -0.08509745448827744, 0.1728018969297409, -0.9812736511230469, 0.07098297774791718, 0.027332425117492676, -0.016803741455078125, 0.09622355019989987, 0.010208597596361063, -0.9343152714809732,0.343062381590613,-0.011199951171875,0.19873046875,-0.9974822998046875
20220123-1523,2022-01-23 15:23:35Z,u01, 208,40,movements,el-ex, rt, d,2883.423934875, -0.0849645804730075, -0.17195471115784203, -0.6821019615756916, 0.1582026183605194, -0.13981212675571442, 1.136718511581421, -0.08361085504293442, 0.17110855877399445, -0.9816980361938477, 0.07021354138851166, 0.022311896085739136, -0.010336816310882568, 0.09500521231250669, 0.01117940532311256, -0.9392952626732387,0.329504715537104,-0.0131378173828125,0.192840576171875,-0.9909210205078125
20220123-1523,2022-01-23 15:23:35Z,u01, 209,40,movements,el-ex, rt, d,2883.448880875, -0.08374410645726438, -0.1704207097699672, -0.6531449775292621, 0.152036651968956, -0.15826743841171265, 1.1290467977523804, -0.0824345126748085, 0.16959698498249054, -0.9820597767829895, 0.06566500663757324, 0.027516111731529236, -0.016872107982635498, 0.09391833003457163, 0.012225211623741763, -0.9440267326134181,0.31598018442937476,-0.0128936767578125,0.1980743408203125,-0.9997711181640625
20220123-1523,2022-01-23 15:23:35Z,u01, 210,40,movements,el-ex, rt, d,2883.473827875, -0.08314973306843916, -0.1692138483753673, -0.6246820342630065, 0.12270288169384003, -0.17984914779663086, 1.1092885732650757, -0.08186773210763931, 0.16840748488903046, -0.9823118448257446, 0.04549068212509155, 0.03291703760623932, -0.009890854358673096, 0.09307392140759002, 0.013465285010177156, -0.9484727652381223,0.3025810969106804,-0.037017822265625,0.201446533203125,-0.991363525390625
20220123-1523,2022-01-23 15:23:35Z,u01, 211,40,movements,el-ex, rt, d,2883.498773875, -0.08304017779429454, -0.168530570363397, -0.5967142926955028, 0.11102821677923203, -0.19057324528694153, 1.0893642902374268, -0.08176963776350021, 0.16773392260074615, -0.9824352860450745, 0.02738722413778305, 0.03217153251171112, -0.015092790126800537, 0.0925359324172493, 0.014814402416588485, -0.9526353308447526,0.2893156765469155,-0.0496368408203125,0.1965789794921875,-0.9996490478515625
20220123-1523,2022-01-23 15:23:35Z,u01, 212,40,movements,el-ex, rt, d,2883.523720875, -0.08312495962167958, -0.16751931769578712, -0.5693283935298581, 0.14264217019081116, -0.19439680874347687, 1.067389726638794, -0.08186697214841843, 0.1667369157075882, -0.9825968742370605, 0.02557721734046936, 0.044902533292770386, -0.007683217525482178, 0.09185346435430196, 0.016263678756178568, -0.9565416440756451,0.2762726508970391,-0.054901123046875,0.2110137939453125,-0.99072265625
20220123-1523,2022-01-23 15:23:35Z,u01, 213,40,movements,el-ex, rt, d,2883.548666875, -0.08348107906836938, -0.16641140181040318, -0.5422935525830539, 0.11093470454216003, -0.19969969987869263, 1.052014946937561, -0.08223224431276321, 0.16564439237117767, -0.9827511310577393, 0.04284922033548355, 0.03764849901199341, 0.0015957355499267578, 0.09114124929429399, 0.017824326842237594, -0.9602237066144994,0.2633360840999705,-0.0410003662109375,0.199188232421875,-0.9800262451171875
20220123-1523,2022-01-23 15:23:35Z,u01, 214,40,movements,el-ex, rt, d,2883.5736138750003, -0.08414099337306331, -0.16595641293294175, -0.5157835097374942, 0.1059454008936882, -0.1897948682308197, 1.0329192876815796, -0.08288708329200745, 0.16519567370414734, -0.982771635055542, 0.03511172533035278, 0.039058536291122437, -0.005311191082000732, 0.0907608375711935, 0.019407300891649673, -0.9636393870139192,0.2505695362317534,-0.04876708984375,0.204071044921875,-0.98785400390625
20220123-1523,2022-01-23 15:23:35Z,u01, 215,40,movements,el-ex, rt, d,2883.5985598750003, -0.08452113669013847, -0.16542357464037669, -0.4899335674350681, 0.106174036860466, -0.1877777874469757, 1.0046570301055908, -0.08326809108257294, 0.16467013955116272, -0.9828276634216309, 0.03395160287618637, 0.036578088998794556, -0.005941867828369141, 0.09029056404664315, 0.020827724295473006, -0.9668120349846975,0.238092980000921,-0.0514068603515625,0.2027587890625,-0.9865875244140625
20220123-1523,2022-01-23 15:23:35Z,u01, 216,40,movements,el-ex, rt, d,2883.6235058750003, -0.08527095322359206, -0.16459651199848502, -0.46472195600196364, 0.11156367510557175, -0.20918601751327515, 0.984045147895813, -0.0840165764093399, 0.16385431587696075, -0.9829002618789673, 0.03621070832014084, 0.03612743318080902, -0.00895148515701294, 0.08970517939088714, 0.02242401462375926, -0.9697572596784406,0.22587811326461293,-0.0484771728515625,0.2010650634765625,-0.9911651611328125
20220123-1523,2022-01-23 15:23:35Z,u01, 217,40,movements,el-ex, rt, d,2883.648452875, -0.08626620332722668, -0.16411050954319586, -0.43978609324332213, 0.0833645612001419, -0.20060282945632935, 0.9715595245361328, -0.0850016176700592, 0.1633748561143875, -0.9828954339027405, 0.03745514899492264, 0.030732274055480957, 0.009522020816802979, 0.08928905288628641, 0.024078234083155715, -0.9725034298173105,0.2137400089960797,-0.047027587890625,0.19287109375,-0.975250244140625
20220123-1523,2022-01-23 15:23:35Z,u01, 218,40,movements,el-ex, rt, d,2883.673398875, -0.08677984312466595, -0.16431699748796252, -0.4154648184391438, 0.09375711530447006, -0.16879305243492126, 0.9435107707977295, -0.08550353348255157, 0.1635785698890686, -0.9828180074691772, 0.04755484312772751, 0.040996089577674866, 0.013350844383239746, 0.0891420211563409, 0.025391083501212913, -0.9750167403803398,0.20186927588269563,-0.0369873046875,0.2056732177734375,-0.9702301025390625
20220123-1523,2022-01-23 15:23:35Z,u01, 219,40,movements,el-ex, rt, d,2883.698345875, -0.08667486016640974, -0.16316768166579065, -0.3916042119138851, 0.16660422086715698, -0.1557311713695526, 0.9317982792854309, -0.08541657030582428, 0.16244462132453918, -0.9830136299133301, 0.07102745771408081, 0.04554799199104309, 0.010113239288330078, 0.08826190391026656, 0.02651476005160232, -0.9773983400933027,0.19026106395977432,-0.0164642333984375,0.210174560546875,-0.96722412109375
20220123-1523,2022-01-23 15:23:35Z,u01, 220,40,movements,el-ex, rt, d,2883.723291875, -0.08718596401737415, -0.16097782807845445, -0.36795957399421236, 0.16034583747386932, -0.1828138530254364, 0.9099239706993103, -0.08594975620508194, 0.16028347611427307, -0.9833218455314636, 0.07410885393619537, 0.03863018751144409, -0.008331596851348877, 0.08691674921983956, 0.028009935899555263, -0.979650598812139,0.1787333970327554,-0.014007568359375,0.19677734375,-0.991790771484375
20220123-1523,2022-01-23 15:23:35Z,u01, 221,40,movements,el-ex, rt, d,2883.748238875, -0.08825226373676817, -0.16022555849496659, -0.3454704664652356, 0.05544624105095863, -0.20443086326122284, 0.8700587153434753, -0.08700881898403168, 0.15954087674617767, -0.9833494424819946, 0.05049446225166321, 0.032323211431503296, -0.008197128772735596, 0.08631695155303945, 0.029574508684521217, -0.9816096121998008,0.16768188318016397,-0.036590576171875,0.188568115234375,-0.98834228515625
20220123-1523,2022-01-23 15:23:35Z,u01, 222,40,movements,el-ex, rt, d,2883.773184875, -0.0896056225638161, -0.1606734417215648, -0.3234515885636562, 0.055110085755586624, -0.1828729808330536, 0.8737486004829407, -0.08833315968513489, 0.15998300909996033, -0.9831595420837402, 0.05842587351799011, 0.029699057340621948, 0.0032096505165100098, 0.08631221570015142, 0.031151734780776714, -0.9833591862022021,0.1567939951205736,-0.029022216796875,0.1892547607421875,-0.9787139892578125
20220123-1523,2022-01-23 15:23:35Z,u01, 223,40,movements,el-ex, rt, d,2883.798130875, -0.08997515719587358, -0.16165204347958165, -0.3013106807386445, 0.025774136185646057, -0.1457778662443161, 0.8734050393104553, -0.08868236094713211, 0.16094893217086792, -0.9829704165458679, 0.06406985968351364, 0.02243126928806305, 0.0032036304473876953, 0.08647046003902797, 0.03221244741973311, -0.9849931253864179,0.1458548987768753,-0.0201568603515625,0.18328857421875,-0.9745330810546875
20220123-1523,2022-01-23 15:23:35Z,u01, 224,40,movements,el-ex, rt, d,2883.8230778750003, -0.09011649878440892, -0.16215238912613858, -0.27932410186640794, 0.1108512133359909, -0.16386713087558746, 0.8632088303565979, -0.08881403505802155, 0.16144272685050964, -0.9828775525093079, 0.03461474925279617, 0.028819188475608826, -0.029237866401672363, 0.08636720443040978, 0.033195216103202876, -0.9865162771530799,0.1349979577977298,-0.0548248291015625,0.1917724609375,-1.014556884765625
20220123-1523,2022-01-23 15:23:35Z,u01, 225,40,movements,el-ex, rt, d,2883.8480238750003, -0.09121114306773997, -0.15972394200828363, -0.2569791414451461, 0.20462177693843842, -0.2252468764781952, 0.8777068257331848, -0.08992532640695572, 0.15904566645622253, -0.983167290687561, 0.05817171931266785, 0.02445662021636963, -0.026247382164001465, 0.08486029172464614, 0.03485812395554594, -0.9880336721973405,0.12398806599680838,-0.034332275390625,0.186187744140625,-1.0126800537109375
20220123-1523,2022-01-23 15:23:35Z,u01, 226,40,movements,el-ex, rt, d,2883.872970875, -0.09381195355306989, -0.1576980761944619, -0.23442482253538818, 0.10763484239578247, -0.2601381540298462, 0.8906505107879639, -0.09251204133033752, 0.15704526007175446, -0.9832488298416138, 0.05961403250694275, 0.015348613262176514, -0.012341320514678955, 0.08360719173835758, 0.03722111319505575, -0.9893957878448906,0.11278467278135647,-0.033447265625,0.1723175048828125,-0.993072509765625
20220123-1523,2022-01-23 15:23:35Z,u01, 227,40,movements,el-ex, rt, d,2883.897916875, -0.09622892054395314, -0.15815473093560603, -0.21146965900847406, 0.03500708192586899, -0.22336207330226898, 0.9146034121513367, -0.09488134831190109, 0.15749624371528625, -0.9829508662223816, 0.06987213343381882, 0.03421527147293091, 0.05243945121765137, 0.08352298458896139, 0.03935051952486326, -0.9905614711636149,0.10130824999486265,-0.0273895263671875,0.189300537109375,-0.9368133544921875
20220123-1523,2022-01-23 15:23:35Z,u01, 228,40,movements,el-ex, rt, d,2883.922863875, -0.09757426472964752, -0.15886444680317355, -0.18826885693816156, 0.11182279884815216, -0.17731088399887085, 0.9117024540901184, -0.09619276225566864, 0.1581970602273941, -0.9827108383178711, 0.08351264894008636, 0.05881352722644806, 0.05831819772720337, 0.08347292085513977, 0.04094923596524023, -0.9916163173967345,0.0897350774631669,-0.012786865234375,0.2182159423828125,-0.924774169921875
20220123-1523,2022-01-23 15:23:36Z,u01, 229,40,movements,el-ex, rt, d,2883.947809875, -0.09781858525888178, -0.15717373949219082, -0.16493155011853292, 0.15965940058231354, -0.15348872542381287, 0.9244192242622375, -0.09645883738994598, 0.15652741491794586, -0.9829521179199219, 0.09610782563686371, 0.0481082946062088, 0.042415618896484375, 0.08216038399416913, 0.042114279491975146, -0.9926538826719066,0.07819480562926817,-0.0014801025390625,0.2076263427734375,-0.937286376953125
20220123-1523,2022-01-23 15:23:36Z,u01, 230,40,movements,el-ex, rt, d,2883.972756875, -0.09810098520134979, -0.15677872864287984, -0.1407497283398121, 0.054166797548532486, -0.1692359894514084, 0.9718381762504578, -0.09674246609210968, 0.15613725781440735, -0.9829862713813782, 0.0828874334692955, 0.023016273975372314, 0.02142322063446045, 0.08145842600279174, 0.04325944603783457, -0.9935352809028529,0.06618648979104953,-0.014862060546875,0.17828369140625,-0.9630889892578125
20220123-1523,2022-01-23 15:23:36Z,u01, 231,40,movements,el-ex, rt, d,2883.997702875, -0.09836851500905935, -0.15900874000418813, -0.11610401588160374, -0.0005606990307569504, -0.1657460480928421, 0.9764066934585571, -0.09697100520133972, 0.15833953022956848, -0.9826114177703857, 0.02313368022441864, 0.05088905990123749, 0.0024631619453430176, 0.08203444914407539, 0.04432420403532017, -0.9941850808405077,0.05386810009301078,-0.067230224609375,0.20672607421875,-0.9801025390625
20220123-1523,2022-01-23 15:23:36Z,u01, 232,40,movements,el-ex, rt, d,2884.022648875, -0.09774923142860334, -0.15971252771244224, -0.091462187402515, 0.14274398982524872, -0.12853184342384338, 0.967454731464386, -0.09635157138109207, 0.15903440117835999, -0.9825601577758789, 0.013633623719215393, 0.05814403295516968, 0.007081031799316406, 0.08181915829528565, 0.045006142876153024, -0.994760173610727,0.04162188128077675,-0.081634521484375,0.2186126708984375,-0.978057861328125
20220123-1523,2022-01-23 15:23:36Z,u01, 233,40,movements,el-ex, rt, d,2884.0475958750003, -0.09698187514147776, -0.15621577121748453, -0.06642761856478441, 0.2933226525783539, -0.13440397381782532, 0.9666492938995361, -0.09565082937479019, 0.15558117628097534, -0.9831812977790833, 0.03936111181974411, 0.05849972367286682, -0.030688941478729248, 0.07949851509928421, 0.04570939617286812, -0.9953557156486116,0.02928743454473516,-0.058074951171875,0.2154998779296875,-1.012725830078125
20220123-1523,2022-01-23 15:23:36Z,u01, 234,40,movements,el-ex, rt, d,2884.0725418750003, -0.09731835046225745, -0.15204962832185062, -0.04175852753598534, 0.1762997955083847, -0.20056694746017456, 0.957364022731781, -0.09604378789663315, 0.15146443247795105, -0.9837856292724609, 0.05771366506814957, 0.06342519819736481, -0.027292251586914062, 0.07685772931703129, 0.04690508777125518, -0.995791329057686,0.01709932290134547,-0.0361175537109375,0.2156524658203125,-1.0098724365234375
20220123-1523,2022-01-23 15:23:36Z,u01, 235,40,movements,el-ex, rt, d,2884.097488875, -0.0992667929242642, -0.1523678327201356, -0.017120614906432248, 0.016793355345726013, -0.25499290227890015, 0.990468442440033, -0.09795567393302917, 0.1517789512872696, -0.9835485816001892, 0.0820407122373581, 0.056351035833358765, 0.014890193939208984, 0.07643718840882605, 0.04881658038403455, -0.9958674123494066,0.004748941624556247,-0.0156707763671875,0.205169677734375,-0.9722747802734375
20220123-1523,2022-01-23 15:23:36Z,u01, 236,40,movements,el-ex, rt, d,2884.122434875, -0.10136917485005856, -0.15480203510617285, 0.007868534782882188, 0.011339136399328709, -0.2088085114955902, 1.0013011693954468, -0.09998556971549988, 0.1541845053434372, -0.9829699993133545, 0.0769142359495163, 0.07137100398540497, 0.06182742118835449, 0.07702513554918923, 0.0508146356486924, -0.9957025906737895,-0.007834855379023009,-0.0234222412109375,0.225433349609375,-0.919281005859375
20220123-1523,2022-01-23 15:23:36Z,u01, 237,40,movements,el-ex, rt, d,2884.147381875, -0.10150171983753464, -0.15624156137502637, 0.03364815340181243, 0.0950917899608612, -0.12208352982997894, 1.03812837600708, -0.10009326040744781, 0.15560665726661682, -0.9827349185943604, 0.05776534229516983, 0.07567089796066284, 0.06133294105529785, 0.07707899910273044, 0.05187841817335259, -0.9954590811851227,-0.020708781887583738,-0.0397491455078125,0.2288818359375,-0.9183807373046875
20220123-1523,2022-01-23 15:23:36Z,u01, 238,40,movements,el-ex, rt, d,2884.172327875, -0.09961964146731617, -0.15504233810198714, 0.06084244501348785, 0.20071709156036377, -0.07323755323886871, 1.0839905738830566, -0.0982619896531105, 0.15442192554473877, -0.9831065535545349, 0.04206383228302002, 0.0746736228466034, 0.021772325038909912, 0.07580184341793492, 0.051969371615955905, -0.9951821987528062,-0.03414164123045396,-0.056610107421875,0.2270355224609375,-0.9619293212890625
20220123-1523,2022-01-23 15:23:36Z,u01, 239,40,movements,el-ex, rt, d,2884.197273875, -0.09717855074627368, -0.1531123694615565, 0.08878804872592873, 0.1516185849905014, -0.09236691147089005, 1.0953466892242432, -0.0958905816078186, 0.15251483023166656, -0.9836382865905762, 0.06293156743049622, 0.06910392642021179, -0.006016254425048828, 0.07416669002160362, 0.05177037787724223, -0.9947482120742648,-0.04790828496697894,-0.03814697265625,0.222412109375,-0.9872894287109375
20220123-1523,2022-01-23 15:23:36Z,u01, 240,40,movements,el-ex, rt, d,2884.222220875, -0.09615447623263375, -0.1531821481979995, 0.11661825514003403, 0.060602590441703796, -0.16153813898563385, 1.1040380001068115, -0.09488219022750854, 0.1525837928056717, -0.983725368976593, 0.07821956276893616, 0.07188835740089417, -0.015633761882781982, 0.07350544159624717, 0.05229029952472085, -0.9940094673742297,-0.061709122112333176,-0.0166015625,0.225616455078125,-0.999237060546875
20220123-1523,2022-01-23 15:23:36Z,u01, 241,40,movements,el-ex, rt, d,2884.247166875, -0.09600798822151342, -0.15453078993713548, 0.14461147332387544, 0.05743343010544777, -0.16321325302124023, 1.1047179698944092, -0.09471827745437622, 0.15391649305820465, -0.983533501625061, 0.06142357736825943, 0.08564656972885132, 0.00982445478439331, 0.07344190194316318, 0.05328727814363721, -0.9929982324995733,-0.07563850135120642,-0.02935791015625,0.23638916015625,-0.9729766845703125
20220123-1523,2022-01-23 15:23:36Z,u01, 242,40,movements,el-ex, rt, d,2884.2721138750003, -0.09524109389690534, -0.15458729918902542, 0.1722264489164067, 0.13926103711128235, -0.12784913182258606, 1.0752397775650024, -0.0939631536602974, 0.153972327709198, -0.9835972189903259, 0.0507960170507431, 0.09456293284893036, 0.008530080318450928, 0.0727614560202279, 0.053918201037109356, -0.9918777050119681,-0.08931493251769096,-0.041778564453125,0.2474822998046875,-0.97540283203125
20220123-1523,2022-01-23 15:23:36Z,u01, 243,40,movements,el-ex, rt, d,2884.2970598750003, -0.09468734209960515, -0.15397703738573487, 0.19928495546879035, 0.10614790767431259, -0.17262579500675201, 1.0768944025039673, -0.09342733770608902, 0.15336932241916656, -0.9837424159049988, 0.07291950285434723, 0.07304069399833679, 0.004631757736206055, 0.07175130164417036, 0.05459425522530458, -0.990618535489346,-0.10269378232727594,-0.021697998046875,0.2317047119140625,-0.9807586669921875
20220123-1523,2022-01-23 15:23:36Z,u01, 244,40,movements,el-ex, rt, d,2884.322006875, -0.09538265176348605, -0.1542115933780422, 0.22755368491947964, 0.08174482733011246, -0.21501587331295013, 1.1553610563278198, -0.09410788863897324, 0.15360109508037567, -0.9836413860321045, 0.05766989290714264, 0.049752891063690186, 0.0020282864570617676, 0.07104802008663864, 0.05595960422471258, -0.989039234073229,-0.11671399397288715,-0.0372467041015625,0.20257568359375,-0.9806365966796875
20220123-1523,2022-01-23 15:23:36Z,u01, 245,40,movements,el-ex, rt, d,2884.346952875, -0.0963551154217312, -0.15533657953779706, 0.25725428876976286, 0.04398519545793533, -0.23228886723518372, 1.1910066604614258, -0.0950477197766304, 0.15471263229846954, -0.9833768010139465, 0.0969092845916748, 0.06541074812412262, 0.006448149681091309, 0.07070110513365231, 0.05755825408411162, -0.9871226480136547,-0.13144344813289818,-0.0042877197265625,0.2156219482421875,-0.9819183349609375
20220123-1523,2022-01-23 15:23:36Z,u01, 246,40,movements,el-ex, rt, d,2884.37189825, -0.09809650578181146, -0.157135861279999, 0.28698914354264304, 0.042104773223400116, -0.28316500782966614, 1.1595889329910278, -0.09673259407281876, 0.1564899981021881, -0.9829311966896057, 0.11153361201286316, 0.08998532593250275, 0.007574141025543213, 0.07059744796576531, 0.05958536386579666, -0.9849322507498881,-0.14619860777420737,0.013458251953125,0.2477569580078125,-0.974090576171875
20220123-1523,2022-01-23 15:23:36Z,u01, 247,40,movements,el-ex, rt, d,2884.3968452500003, -0.10011355348065884, -0.15803827757004893, 0.31586106325838903, 0.08039417117834091, -0.22232791781425476, 1.127415657043457, -0.0987008586525917, 0.15738123655319214, -0.9825931191444397, 0.04344877600669861, 0.07587997615337372, 0.030444741249084473, 0.070012081535421, 0.061658230255406815, -0.982618949746504,-0.1604882207692784,-0.04876708984375,0.2263336181640625,-0.9571685791015625
20220123-1523,2022-01-23 15:23:36Z,u01, 248,40,movements,el-ex, rt, d,2884.4217912500003, -0.10110585581691017, -0.1582404357460596, 0.34454905828894705, 0.1577589064836502, -0.24689124524593353, 1.1653289794921875, -0.09967263042926788, 0.15758086740970612, -0.9824630618095398, 0.07596047222614288, 0.10261210799217224, 0.022288501262664795, 0.06913307371837817, 0.06315927886709405, -0.9801760668660163,-0.1746038180200685,-0.0194549560546875,0.2560577392578125,-0.962005615234375
20220123-1523,2022-01-23 15:23:36Z,u01, 249,40,movements,el-ex, rt, d,2884.44673825, -0.1021791271288226, -0.15579797406905807, 0.3749412270625868, 0.2221527099609375, -0.20780715346336365, 1.203602910041809, -0.10076598078012466, 0.15516845881938934, -0.9827354550361633, 0.05796507000923157, 0.041395366191864014, -0.02147597074508667, 0.06686818031690245, 0.06450520653362496, -0.9774805787595697,-0.18947123617806652,-0.0349273681640625,0.192413330078125,-1.006195068359375
