SessionID,LoggingTime,UID,RecNo,Hertz,Activity,MoveType,Wrist,Side,TimeStamp,DMRoll,DMPitch,DMYaw,DMRotX,DMRotY,DMRotZ,DMGrvX,DMGrvY,DMGrvZ,DMUAccelX,DMUAccelY,DMUAccelZ,DMQuatX,DMQuatY,DMQuatW,DMQuatZ,AccelroX,AceelroY,AceelroZ
20220122-1222,2022-01-22 12:22:39Z,u01, 1,40,movements,el-ex, rt, d,292439.6264800417, 0.04749410591972952, -0.08286360027979515, 0.0019692623011113154, 0.021444786339998245, -0.45051857829093933, 0.3738652467727661, 0.047313351184129715, 0.08276880532503128, -0.9954450130462646, -0.1272542029619217, 0.02964259684085846, 0.03112006187438965, -0.04143160612488558, 0.02368365888865502, 0.9988606742074227,-6.938893903907228e-18,0.0626068115234375,0.0908203125,-0.9889373779296875
20220122-1222,2022-01-22 12:22:39Z,u01, 2,40,movements,el-ex, rt, d,292439.65142504167, 0.04789751221509016, -0.08284350130117821, 0.00224279676888982, -0.02551712840795517, -0.015853416174650192, 0.04486257955431938, 0.047714997082948685, 0.08274877071380615, -0.9954274892807007, 0.03881753981113434, 0.0031123384833335876, -0.0009866952896118164, -0.041424832041200205, 0.023879485323862065, 0.9988563227267373,0.00012849483234392972,0.0633697509765625,0.0806121826171875,-0.977996826171875
20220122-1222,2022-01-22 12:22:39Z,u01, 3,40,movements,el-ex, rt, d,292439.6763700417, 0.04809503609093316, -0.0832050232972874, 0.0032575178131131455, -0.007216386031359434, 0.01663215644657612, 0.04568103700876236, 0.0479101724922657, 0.083109050989151, -0.9953880906105042, 0.013094406574964523, 0.017904043197631836, 0.0005760788917541504, -0.0416175592021475, 0.023956640418728425, 0.9988462286468883,0.000626827592635,-0.0993499755859375,0.1096954345703125,-0.9706878662109375
20220122-1222,2022-01-22 12:22:39Z,u01, 4,40,movements,el-ex, rt, d,292439.7013150417, 0.04877873406297559, -0.0832169420777433, 0.004197272623858182, -0.005286592524498701, 0.02401110902428627, 0.027982329949736595, 0.048590660095214844, 0.0831209272146225, -0.9953541159629822, 0.01804441586136818, 0.017220772802829742, -0.006202280521392822, -0.04163513695361255, 0.02427851761577372, 0.9988373126330314,0.001081786146860067,0.1094970703125,0.0800323486328125,-1.0025177001953125
20220122-1222,2022-01-22 12:22:39Z,u01, 5,40,movements,el-ex, rt, d,292439.7262600417, 0.04925293235632656, -0.0837934842164767, 0.004925009783442207, -0.037117525935173035, 0.011842792853713036, 0.024158233776688576, 0.04906028136610985, 0.08369546383619308, -0.9952829480171204, 0.015850547701120377, 0.013686038553714752, -0.012758433818817139, -0.0419322398450469, 0.02449918309764404, 0.99881908255636,0.0014282359851312404,0.0601043701171875,0.10174560546875,-0.9942169189453125
20220122-1222,2022-01-22 12:22:39Z,u01, 6,40,movements,el-ex, rt, d,292439.75120504166, 0.049609637173551546, -0.08482850525922377, 0.005636001004475602, -0.032298170030117035, 0.016303788870573044, 0.02335149608552456, 0.049410976469516754, 0.08472680300474167, -0.9951783418655396, 0.0057494863867759705, 0.009953886270523071, -0.006301760673522949, -0.042458155376419816, 0.024660420500311475, 0.9987922837001618,0.0017629458984050467,0.065155029296875,0.098785400390625,-0.998809814453125
20220122-1222,2022-01-22 12:22:39Z,u01, 7,40,movements,el-ex, rt, d,292439.7761510417, 0.05033503676205245, -0.08501056114312346, 0.006031622596345053, 0.01616710051894188, 0.03943201154470444, 0.00548514723777771, 0.05013209208846092, 0.08490820229053497, -0.9951267838478088, -0.0032571516931056976, 0.01102370023727417, -0.0007227659225463867, -0.042554650572889215, 0.025013906006503127, 0.9987792110105468,0.0019428160554770951,0.065032958984375,0.097137451171875,-1.0087127685546875
20220122-1222,2022-01-22 12:22:39Z,u01, 8,40,movements,el-ex, rt, d,292439.8010960417, 0.051334671522775537, -0.08548168270862544, 0.005990483746353224, -0.028084151446819305, 0.022582123056054115, -0.0064690508879721165, 0.05112477019429207, 0.08537761867046356, -0.9950361251831055, 0.010871630162000656, 0.010050743818283081, -0.008641183376312256, -0.042790363707851574, 0.025513025766449277, 0.9987564968898303,0.0018949320959371768,0.0564117431640625,0.096160888671875,-1.0029296875
20220122-1222,2022-01-22 12:22:39Z,u01, 9,40,movements,el-ex, rt, d,292439.8260410417, 0.051869238484765844, -0.08699611796083774, 0.005793136325932278, -0.015574084594845772, 0.01051640510559082, -0.015700099989771843, 0.05164991319179535, 0.08688642084598541, -0.9948784112930298, 0.0071421414613723755, 0.010861285030841827, -0.015726447105407715, -0.04354457944884603, 0.025781161806073746, 0.9987172256002933,0.0017652323964801875,0.0484161376953125,0.0956268310546875,-0.9952850341796875
20220122-1222,2022-01-22 12:22:39Z,u01, 10,40,movements,el-ex, rt, d,292439.8509860417, 0.052184020303179916, -0.08698185323661545, 0.005086992643981271, 0.04731956124305725, 0.025271182879805565, -0.040453050285577774, 0.05196314677596092, 0.08687221258878708, -0.9948633313179016, -0.0012429878115653992, 0.011043339967727661, -0.014932811260223389, -0.043528571631703816, 0.025953748874733607, 0.9987140499346175,0.001405947974355365,0.06182861328125,0.09490966796875,-1.0026702880859375
20220122-1222,2022-01-22 12:22:39Z,u01, 11,40,movements,el-ex, rt, d,292439.87593104166, 0.05293570625608406, -0.08608272969127638, 0.004341104798093171, 0.03529076278209686, 0.01915902830660343, -0.025192538276314735, 0.05271506682038307, 0.08597645163536072, -0.9949015974998474, 0.015155971050262451, -0.006646104156970978, -0.010637342929840088, -0.043070291301790284, 0.026346826792603244, 0.9987241277695149,0.0010290558588536489,0.0572662353515625,0.0972900390625,-1.010711669921875
20220122-1222,2022-01-22 12:22:39Z,u01, 12,40,movements,el-ex, rt, d,292439.9008760417, 0.05356526531397922, -0.08594038382362139, 0.003984655959599762, 0.020068597048521042, 0.014142032712697983, -0.005819506477564573, 0.0533420592546463, 0.08583463728427887, -0.9948804378509521, 0.019152384251356125, 0.00713706761598587, -0.02295708656311035, -0.04299478005988636, 0.02666910311187445, 0.9987189900395612,0.0008394129110119927,0.0484161376953125,0.09844970703125,-1.010498046875
20220122-1222,2022-01-22 12:22:39Z,u01, 13,40,movements,el-ex, rt, d,292439.9258210417, 0.053676114551694104, -0.08582498348978233, 0.0037281811279919618, 0.014264271594583988, 0.00334244966506958, -0.011738581582903862, 0.05345287173986435, 0.08571965992450714, -0.9948843717575073, 0.015577830374240875, 0.010044410824775696, -0.030246853828430176, -0.042933773254233115, 0.02673014399305315, 0.9987200791014508,0.0007105085507562725,0.06866455078125,0.07830810546875,-1.00506591796875
20220122-1222,2022-01-22 12:22:39Z,u01, 14,40,movements,el-ex, rt, d,292439.9507660417, 0.053776394401022616, -0.08546425186390547, 0.0035376643427177984, 0.030087940394878387, -0.001253434456884861, -0.005149987060576677, 0.05355429649353027, 0.08536025136709213, -0.9949098229408264, 0.01715487614274025, 0.009320445358753204, -0.031426846981048584, -0.042751122262135184, 0.026784835194001065, 0.9987265258750447,0.0006180778718582469,0.071563720703125,0.0923309326171875,-1.015777587890625
20220122-1222,2022-01-22 12:22:39Z,u01, 15,40,movements,el-ex, rt, d,292439.97571204166, 0.05378639480962207, -0.08474629559599402, 0.003482972020408035, 0.02854357473552227, -0.012363877147436142, 0.00742625817656517, 0.05356752872467041, 0.08464489132165909, -0.9949702620506287, 0.025930702686309814, 0.010051049292087555, -0.03946882486343384, -0.0423918712118937, 0.02679203351824013, 0.9987416410172714,0.0006002234872461154,0.06903076171875,0.095245361328125,-1.0256805419921875
20220122-1222,2022-01-22 12:22:39Z,u01, 16,40,movements,el-ex, rt, d,292440.0006570417, 0.053479987764894855, -0.08440012332721686, 0.0038285882901507363, 0.006762480363249779, -0.023071182891726494, 0.01676536537706852, 0.05326422303915024, 0.0842999592423439, -0.9950157999992371, 0.025974612683057785, 0.0026292651891708374, -0.02904731035232544, -0.04222351563209557, 0.02663222484466911, 0.9987528499256366,0.0007839469456032769,0.0703277587890625,0.09454345703125,-1.025726318359375
20220122-1222,2022-01-22 12:22:39Z,u01, 17,40,movements,el-ex, rt, d,292440.0256020417, 0.05301214094226728, -0.08456816757871864, 0.004194438554367673, -0.0025283568538725376, -0.011722654104232788, 0.004298574291169643, 0.05279795080423355, 0.08446740359067917, -0.9950264692306519, 0.015408776700496674, 0.007268339395523071, -0.023314595222473145, -0.0423120749636015, 0.026390597209022055, 0.9987553882756605,0.0009742898834916719,0.081512451171875,0.09454345703125,-1.03564453125
20220122-1222,2022-01-22 12:22:39Z,u01, 18,40,movements,el-ex, rt, d,292440.0505470417, 0.05290688130688442, -0.08468380424958755, 0.004051651430411255, -0.004800232592970133, -0.010883359238505363, -0.007107079029083252, 0.05269269645214081, 0.0845826268196106, -0.9950222373008728, 0.033244743943214417, 0.012005411088466644, -0.0455966591835022, -0.042367886494757825, 0.02634087021120375, 0.9987544668242639,0.000903679147558227,0.082275390625,0.08978271484375,-1.0265655517578125
20220122-1222,2022-01-22 12:22:39Z,u01, 19,40,movements,el-ex, rt, d,292440.0754920417, 0.05235891528105425, -0.08511942609087865, 0.003715977343711601, -0.029585840180516243, -0.03688639774918556, -0.030916471034288406, 0.052145518362522125, 0.08501667529344559, -0.9950140714645386, 0.025308039039373398, 0.004125073552131653, -0.044292569160461426, -0.04258080205223698, 0.026073692529212843, 0.9987525302840883,0.0007419444298399636,0.06903076171875,0.0933074951171875,-1.0192718505859375
20220122-1222,2022-01-22 12:22:39Z,u01, 20,40,movements,el-ex, rt, d,292440.10043704166, 0.051366755873401636, -0.0860914182673087, 0.0026722667206396404, -0.039155811071395874, -0.03734426200389862, -0.057133760303258896, 0.051154013723134995, 0.08598510921001434, -0.9949823021888733, 0.01368052139878273, 0.014860130846500397, -0.042218565940856934, -0.0430524655494349, 0.025599263932919555, 0.9987448070470255,0.0002293597647167328,0.0839080810546875,0.097320556640625,-1.0397186279296875
20220122-1222,2022-01-22 12:22:39Z,u01, 21,40,movements,el-ex, rt, d,292440.1253820417, 0.05037670010014875, -0.08733944011064708, 0.0009370310882406915, -0.038477636873722076, -0.0417986661195755, -0.0770464763045311, 0.05016345530748367, 0.0872284397482872, -0.9949245452880859, 0.013984434306621552, 0.003713846206665039, -0.04676246643066406, -0.043653775581025525, 0.02514122475281259, 0.9987301635150826,-0.0006315817370631388,0.0750579833984375,0.0882568359375,-1.03857421875
20220122-1222,2022-01-22 12:22:39Z,u01, 22,40,movements,el-ex, rt, d,292440.1503270417, 0.049729171733303705, -0.08807783846246345, -0.0009384301960003723, -0.0018606027588248253, -0.026919782161712646, -0.06660975515842438, 0.0495159886777401, 0.0879640057682991, -0.9948921799659729, 0.017958316951990128, 0.014346085488796234, -0.0673484206199646, -0.043999416594595595, 0.024858565849104258, 0.9987210443131468,-0.0015631577937934155,0.0645599365234375,0.09912109375,-1.037078857421875
20220122-1222,2022-01-22 12:22:39Z,u01, 23,40,movements,el-ex, rt, d,292440.1752730417, 0.04912822241621911, -0.08754951480490908, -0.0027153047304784806, 0.03324592113494873, -0.007720655761659145, -0.0773775726556778, 0.04892037808895111, 0.0874377116560936, -0.994968056678772, 0.0033714398741722107, 0.012293636798858643, -0.06341207027435303, -0.04371421837750694, 0.024597481214870938, 0.9987383464620662,-0.0024307773442859074,0.0644683837890625,0.092926025390625,-1.0455780029296875
20220122-1222,2022-01-22 12:22:39Z,u01, 24,40,movements,el-ex, rt, d,292440.20021804166, 0.048992032399148955, -0.08780637143404714, -0.004450246984221567, -0.04065326973795891, 0.0026660729199647903, -0.06403474509716034, 0.048783767968416214, 0.08769358694553375, -0.9949522614479065, -0.003770396113395691, -0.009187206625938416, -0.055676400661468506, -0.043821357638057744, 0.02456753275257193, 0.998731846860701,-0.0032973080112270597,0.0685577392578125,0.1038818359375,-1.0619964599609375
20220122-1222,2022-01-22 12:22:39Z,u01, 25,40,movements,el-ex, rt, d,292440.2251630417, 0.04869268231390202, -0.08857307332812306, -0.006396557498175282, -0.0022907364182174206, -0.004570335149765015, -0.09261239320039749, 0.04848264157772064, 0.08845730870962143, -0.994899332523346, 0.0022527724504470825, 0.01215904951095581, -0.07547414302825928, -0.044180930435575666, 0.02446149365993945, 0.998714939659581,-0.0042719409259533506,0.0508575439453125,0.097259521484375,-1.055908203125
20220122-1222,2022-01-22 12:22:39Z,u01, 26,40,movements,el-ex, rt, d,292440.2501080417, 0.04844592350168355, -0.08823144260229179, -0.008580642295932703, 0.041809678077697754, -0.005074073560535908, -0.0728105902671814, 0.0482386015355587, 0.08811701089143753, -0.9949414134025574, 0.0072575584053993225, 0.0017571598291397095, -0.08945494890213013, -0.0439842526496621, 0.024385955837012155, 0.9987203063667234,-0.005353028199065572,0.043487548828125,0.080474853515625,-1.0492706298828125
20220122-1222,2022-01-22 12:22:39Z,u01, 27,40,movements,el-ex, rt, d,292440.2750530417, 0.04828867682153841, -0.08630203100064084, -0.010395325265237603, 0.10170163959264755, 0.019230201840400696, -0.06361868977546692, 0.048090264201164246, 0.08619493991136551, -0.9951169490814209, 0.000402107834815979, 0.007722809910774231, -0.0854494571685791, -0.04299910445327116, 0.024343341896980494, 0.9987590700605637,-0.006232701426711715,0.0523681640625,0.1033782958984375,-1.0724334716796875
20220122-1222,2022-01-22 12:22:39Z,u01, 28,40,movements,el-ex, rt, d,292440.2999980417, 0.04873876811110597, -0.0839978519195355, -0.01203442517687747, 0.07792380452156067, 0.018225522711873055, -0.06250029802322388, 0.04854770004749298, 0.0838991105556488, -0.9952909350395203, 0.007253635674715042, -0.011069007217884064, -0.07615071535110474, -0.041826862870777484, 0.024597609847298307, 0.9987972695008106,-0.007033152537354856,0.0551300048828125,0.0921173095703125,-1.085205078125
20220122-1222,2022-01-22 12:22:40Z,u01, 29,40,movements,el-ex, rt, d,292440.32494304166, 0.04878553012054713, -0.08262296074488255, -0.013464567316256388, 0.049209605902433395, -0.013312427327036858, -0.04164348170161247, 0.04859982430934906, 0.0825289860367775, -0.9954029321670532, 0.022826511412858963, -0.005380645394325256, -0.08647572994232178, -0.041122442269114295, 0.02464693756046416, 0.9988202786434203,-0.007731778471637744,0.047149658203125,0.09283447265625,-1.077484130859375
20220122-1222,2022-01-22 12:22:40Z,u01, 30,40,movements,el-ex, rt, d,292440.3498890417, 0.04805644523444051, -0.08113474229733773, -0.01453002478989388, 0.08279619365930557, -0.028323601931333542, -0.04047328978776932, 0.04787992313504219, 0.08104575425386429, -0.9955596923828125, 0.012254908680915833, 0.00017668306827545166, -0.0839080810546875, -0.0403690653641736, 0.024300064364621756, 0.9988553703552041,-0.008231251109042284,0.0538787841796875,0.0727386474609375,-1.06866455078125
20220122-1222,2022-01-22 12:22:40Z,u01, 31,40,movements,el-ex, rt, d,292440.3748340417, 0.04720235424299592, -0.07857524962227164, -0.01557838942796876, 0.12932108342647552, -0.024848708882927895, -0.037627704441547394, 0.04703924059867859, 0.07849442213773727, -0.9958041906356812, 0.0019108951091766357, -0.002093769609928131, -0.06991541385650635, -0.03908171391597272, 0.023885911322236976, 0.9989125799331187,-0.008707818899800164,0.071929931640625,0.0767822265625,-1.08203125
20220122-1222,2022-01-22 12:22:40Z,u01, 32,40,movements,el-ex, rt, d,292440.399778375, 0.04637509289978657, -0.07477281332298046, -0.016569153946453873, 0.18009790778160095, -0.029436936601996422, -0.019926339387893677, 0.046228937804698944, 0.0747031569480896, -0.9961336851119995, 0.010625254362821579, 0.00722118467092514, -0.05887424945831299, -0.037174421142388926, 0.023478042671899346, 0.9989911460678128,-0.009143056986365361,0.060577392578125,0.0802154541015625,-1.0809326171875
20220122-1222,2022-01-22 12:22:40Z,u01, 33,40,movements,el-ex, rt, d,292440.424723375, 0.04559092675847922, -0.06938899102111747, -0.017137061604815186, 0.2550313174724579, -0.032183386385440826, -0.015467073768377304, 0.045465461909770966, 0.06933332234621048, -0.9965569376945496, 0.012563657015562057, 0.01161445677280426, -0.04647284746170044, -0.034482061842570556, 0.02307607503707573, 0.9990951609273349,-0.009351665076221795,0.047760009765625,0.075958251953125,-1.0635223388671875
20220122-1222,2022-01-22 12:22:40Z,u01, 34,40,movements,el-ex, rt, d,292440.449668375, 0.04496451483544185, -0.0631298577607127, -0.017604489856449898, 0.2203047275543213, -0.02311539091169834, -0.0034733288921415806, 0.04485982283949852, 0.06308793276548386, -0.9969992637634277, 0.008118636906147003, 0.016990095376968384, -0.029596805572509766, -0.03135271415649631, 0.02274601801561551, 0.9992042898666628,-0.009504969462551256,0.05572509765625,0.0826416015625,-1.05615234375
20220122-1222,2022-01-22 12:22:40Z,u01, 35,40,movements,el-ex, rt, d,292440.47461337503, 0.043847806767955806, -0.05889029779824631, -0.017986006162729547, 0.14700435101985931, -0.05457411706447601, -0.00637177936732769, 0.04375777021050453, 0.058856263756752014, -0.9973070025444031, 0.004719346761703491, 0.028332356363534927, -0.0239638090133667, -0.02923556823235325, 0.022176451014733953, 0.9992801882201924,-0.009632203923073894,0.0581817626953125,0.082611083984375,-1.043426513671875
20220122-1222,2022-01-22 12:22:40Z,u01, 36,40,movements,el-ex, rt, d,292440.49955837504, 0.042506324877732954, -0.05501402581602253, -0.018320252550490346, 0.190099835395813, -0.052804507315158844, -0.005080746486783028, 0.04242923855781555, 0.05498627945780754, -0.9975852370262146, 0.0010429956018924713, 0.0285097137093544, -0.0105629563331604, -0.027301588790807844, 0.02149450757317431, 0.9993486618771737,-0.009738933937622207,0.0536651611328125,0.082489013671875,-1.0289764404296875
20220122-1222,2022-01-22 12:22:40Z,u01, 37,40,movements,el-ex, rt, d,292440.524504375, 0.04108693668585701, -0.04978252555733657, -0.018749368786626804, 0.23666492104530334, -0.05835806578397751, -0.008637996390461922, 0.04102449119091034, 0.04976196587085724, -0.9979181885719299, 0.004202507436275482, 0.0358092226088047, -0.005988061428070068, -0.024689834749752122, 0.02076802857117062, 0.9994305755416855,-0.009880907205783933,0.0478515625,0.08831787109375,-1.022430419921875
20220122-1222,2022-01-22 12:22:40Z,u01, 38,40,movements,el-ex, rt, d,292440.549449375, 0.03941047772952293, -0.04546723074965959, -0.019121323844064092, 0.14577166736125946, -0.08365750312805176, -0.010223576799035072, 0.03935955837368965, 0.0454515665769577, -0.9981908798217773, 0.003609132021665573, 0.014728996902704239, 0.015555381774902344, -0.022537873523729365, 0.019915255660002254, 0.9994975672149172,-0.01000407329200554,0.043182373046875,0.0847625732421875,-1.00994873046875
20220122-1222,2022-01-22 12:22:40Z,u01, 39,40,movements,el-ex, rt, d,292440.574394375, 0.03707228575724186, -0.044304230170565305, -0.019432384094391356, 0.07507263123989105, -0.09487652778625488, -0.005261242389678955, 0.037027426064014435, 0.044289737939834595, -0.9983323216438293, 0.006673689931631088, 0.015753500163555145, 0.021769821643829346, -0.02196540776972288, 0.018744833950548236, 0.9995318119615448,-0.010122524099739273,0.0467681884765625,0.0857391357421875,-1.0028228759765625
20220122-1222,2022-01-22 12:22:40Z,u01, 40,40,movements,el-ex, rt, d,292440.59933937504, 0.0348346789241477, -0.04438268604806833, -0.019408810125733117, 0.165130615234375, -0.10698406398296356, 0.010507602244615555, 0.03479333594441414, 0.04436811804771423, -0.9984092116355896, 0.018322449177503586, 0.03517584875226021, 0.0132560133934021, -0.022016137361864266, 0.01762664921173131, 0.9995514092744225,-0.010086835579047285,0.043731689453125,0.0611724853515625,-0.9840240478515625
20220122-1222,2022-01-22 12:22:40Z,u01, 41,40,movements,el-ex, rt, d,292440.624284375, 0.03251417530849655, -0.0406137818563136, -0.019288095532251314, 0.24199753999710083, -0.09946708381175995, -5.509424954652786e-05, 0.032481640577316284, 0.04060261696577072, -0.9986472725868225, 0.010487057268619537, 0.03474518284201622, 0.01199871301651001, -0.020145124233239983, 0.016448061264652192, 0.999612095544713,-0.009970713477873303,0.044464111328125,0.0609130859375,-0.976104736328125
20220122-1222,2022-01-22 12:22:40Z,u01, 42,40,movements,el-ex, rt, d,292440.649229375, 0.03054945947641162, -0.03639767292967588, -0.019631886973369442, 0.2042696624994278, -0.07614405453205109, -0.022844161838293076, 0.03052447736263275, 0.03638963773846626, -0.998871386051178, 0.0024649668484926224, 0.013979524374008179, 0.03314262628555298, -0.01804492826677058, 0.015449474726648626, 0.9996669533382533,-0.010090957494855154,0.0531005859375,0.075408935546875,-0.98236083984375
20220122-1222,2022-01-22 12:22:40Z,u01, 43,40,movements,el-ex, rt, d,292440.674174375, 0.028978231617407507, -0.03399314141474565, -0.02077134339277051, 0.04973291605710983, -0.07989811152219772, -0.05166202783584595, 0.028957437723875046, 0.033986594527959824, -0.9990026950836182, 0.013294093310832977, -0.014089234173297882, 0.042154550552368164, -0.01684260289899856, 0.01466222591247402, 0.9996941082774703,-0.01062912682108675,0.0411376953125,0.07415771484375,-0.9843902587890625
20220122-1222,2022-01-22 12:22:40Z,u01, 44,40,movements,el-ex, rt, d,292440.69911937503, 0.027026765727424067, -0.03531643738372423, -0.02225347345310049, -0.0016192528419196606, -0.08897928893566132, -0.05499237775802612, 0.02700662426650524, 0.035309094935655594, -0.9990114569664001, 0.018159331753849983, 0.01123010739684105, -0.010235309600830078, -0.017504265970149986, 0.013706473683747774, 0.9996883377263692,-0.011362343745541258,0.0335845947265625,0.055084228515625,-0.9687652587890625
20220122-1222,2022-01-22 12:22:40Z,u01, 45,40,movements,el-ex, rt, d,292440.724065375, 0.025162165373634082, -0.034844090658276934, -0.02406132743092034, 0.1217842698097229, -0.05444242060184479, -0.08535142242908478, 0.025144238024950027, 0.034837041050195694, -0.9990766644477844, 0.012285513803362846, 0.027128800749778748, -0.016533076763153076, -0.01726719604248893, 0.012787497418142424, 0.9996941496811635,-0.012246750958387523,0.04339599609375,0.021514892578125,-0.9594879150390625
20220122-1222,2022-01-22 12:22:40Z,u01, 46,40,movements,el-ex, rt, d,292440.749010375, 0.024339596081664767, -0.03158197059765763, -0.026069232634600956, 0.10223237425088882, -0.0404084287583828, -0.06327414512634277, 0.024325056001544, 0.031576719135046005, -0.9992052912712097, 0.018552083522081375, -0.0002810433506965637, -0.004487335681915283, -0.01562921843900912, 0.012372746917987737, 0.9997138179435585,-0.013223801525026675,0.046051025390625,0.0445404052734375,-1.005401611328125
20220122-1222,2022-01-22 12:22:40Z,u01, 47,40,movements,el-ex, rt, d,292440.773955375, 0.02341335575117431, -0.03224744696667088, -0.028121175192102287, -0.15062089264392853, -0.07164617627859116, -0.09626664966344833, 0.023399045690894127, 0.032241858541965485, -0.9992061853408813, 0.018760932609438896, -0.02729811519384384, -0.010696768760681152, -0.015955754215946864, 0.011930407989200613, 0.9997000223844269,-0.014246057448362485,0.036407470703125,0.0630035400390625,-1.0116424560546875
20220122-1222,2022-01-22 12:22:40Z,u01, 48,40,movements,el-ex, rt, d,292440.798900375, 0.021608565569627963, -0.038325299535062106, -0.030531790565288444, -0.19323945045471191, -0.08443467319011688, -0.11148422211408615, 0.02159101702272892, 0.038315918296575546, -0.9990323781967163, 0.010070912539958954, 0.022017233073711395, -0.04566061496734619, -0.018993227746678932, 0.0110933182543654, 0.9996384548626472,-0.015468605750426932,0.0439605712890625,0.03778076171875,-1.0031280517578125
20220122-1222,2022-01-22 12:22:40Z,u01, 49,40,movements,el-ex, rt, d,292440.82384537504, 0.01993569907868949, -0.04106896648393223, -0.0337341161593432, 0.04583744332194328, -0.04834165424108505, -0.14185704290866852, 0.019917570054531097, 0.04105742275714874, -0.9989582300186157, 0.0034435782581567764, 0.0298805832862854, -0.0650065541267395, -0.02036101569888587, 0.010310462886372393, 0.9995939326293507,-0.017066501019857537,0.0430908203125,0.0060577392578125,-1.0122528076171875
20220122-1222,2022-01-22 12:22:40Z,u01, 50,40,movements,el-ex, rt, d,292440.848790375, 0.019365497309339966, -0.036490554955966134, -0.037696698232440456, 0.2286950796842575, 0.0007517263293266296, -0.17227844893932343, 0.019351396709680557, 0.03648245707154274, -0.9991469383239746, 0.0026059430092573166, 0.011048566550016403, -0.04081583023071289, -0.018057708470974796, 0.0100231032548907, 0.9996058426416832,-0.01901983197832035,0.033660888671875,0.0556488037109375,-1.0410308837890625
20220122-1222,2022-01-22 12:22:40Z,u01, 51,40,movements,el-ex, rt, d,292440.873735375, 0.019620049939923865, -0.033155402771666315, -0.04263425362888097, -0.035023413598537445, 0.010424260050058365, -0.2233249396085739, 0.019608009606599808, 0.03314932808279991, -0.9992580413818359, 0.0025324374437332153, -0.02455873414874077, -0.016504287719726562, -0.016363304391778823, 0.010159619979616993, 0.9995838749733964,-0.02147413820083549,0.023529052734375,0.0702056884765625,-1.0638580322265625
20220122-1222,2022-01-22 12:22:40Z,u01, 52,40,movements,el-ex, rt, d,292440.898681375, 0.0189842630997827, -0.03886250793948277, -0.04854329808254528, -0.330928772687912, -0.05390985310077667, -0.24883735179901123, 0.018968788906931877, 0.03885272517800331, -0.9990648627281189, 0.025922512635588646, -0.00633634626865387, -0.051762163639068604, -0.019193112207077832, 0.009958932695902067, 0.9994672743334051,-0.024447965478973557,0.0219879150390625,0.0535736083984375,-1.0438995361328125
20220122-1222,2022-01-22 12:22:40Z,u01, 53,40,movements,el-ex, rt, d,292440.92362637504, 0.0162884137185593, -0.042275321304057714, -0.054350729400974615, 0.24960032105445862, -0.12518097460269928, -0.22405436635017395, 0.016273140907287598, 0.0422627292573452, -0.9989740252494812, 0.051719967275857925, 0.058231547474861145, -0.1299169659614563, -0.020906338862341146, 0.008713582075506028, 0.9993696601470567,-0.02733711973341811,0.0235595703125,0.0061798095703125,-1.0151519775390625
20220122-1222,2022-01-22 12:22:40Z,u01, 54,40,movements,el-ex, rt, d,292440.948571375, 0.014813443065902288, -0.02758452945097385, -0.06161172368655565, 0.8006724119186401, 0.0438607782125473, -0.3405418395996094, 0.014807266183197498, 0.027581030502915382, -0.999509871006012, -0.0228029265999794, 0.05951603129506111, -0.05719172954559326, -0.013556794007497392, 0.00782722509556721, 0.9993999895715909,-0.030899315647765282,0.0442962646484375,0.0254364013671875,-1.04400634765625
20220122-1222,2022-01-22 12:22:40Z,u01, 55,40,movements,el-ex, rt, d,292440.973516375, 0.017011247999114566, -0.012474981536648416, -0.07099676483663062, 0.23839929699897766, 0.10719281435012817, -0.4064306318759918, 0.017009103670716286, 0.012474657967686653, -0.9997774958610535, -0.004222290590405464, -0.00785134918987751, 0.03851956129074097, -0.005931431815218083, 0.008721361712693988, 0.9993126105909007,-0.03554196957990749,0.068572998046875,0.113739013671875,-1.1360321044921875
20220122-1222,2022-01-22 12:22:40Z,u01, 56,40,movements,el-ex, rt, d,292440.998461375, 0.017570583067355434, -0.017087015592827333, -0.08101367542223888, -0.5073063373565674, -0.05793336033821106, -0.38575416803359985, 0.017567114904522896, 0.01708618365228176, -0.9996997117996216, 0.07467221468687057, -0.04052378982305527, 0.004399359226226807, -0.008180316914360958, 0.009123610133920436, 0.999101641028146,-0.040567714753649876,-0.0053863525390625,0.09832763671875,-1.0702972412109375
20220122-1222,2022-01-22 12:22:40Z,u01, 57,40,movements,el-ex, rt, d,292441.023406375, 0.015224602847686544, -0.031062933294741586, -0.08946447626043447, -0.4790753424167633, -0.07507766038179398, -0.3167092502117157, 0.015216669999063015, 0.031057938933372498, -0.9994017481803894, 0.05277644097805023, -0.019507138058543205, -0.045337021350860596, -0.015174499093516378, 0.00829817332200428, 0.9988449903016653,-0.04482873757489329,0.0192413330078125,-0.00592041015625,-0.956329345703125
20220122-1222,2022-01-22 12:22:40Z,u01, 58,40,movements,el-ex, rt, d,292441.04835137504, 0.014341403713695628, -0.03989929954980146, -0.0974680286621477, -0.2173060029745102, 0.015342054888606071, -0.34864184260368347, 0.014329498633742332, 0.039888713508844376, -0.9991014003753662, 0.005003335885703564, -0.03943105787038803, -0.03413224220275879, -0.019574883351915796, 0.008132453697161552, 0.9985813740393585,-0.048846650999827525,0.0907135009765625,-0.03314208984375,-0.989959716796875
20220122-1222,2022-01-22 12:22:40Z,u01, 59,40,movements,el-ex, rt, d,292441.073297375, 0.014446005434553245, -0.043464363300303725, -0.1064893783849111, -0.10815614461898804, 0.02142644301056862, -0.36297857761383057, 0.01443186029791832, 0.04345067963004112, -0.9989513158798218, 0.0248899906873703, -0.019677594304084778, -0.028667032718658447, -0.021314798096687494, 0.008367455764923717, 0.9983126670031826,-0.053362313801133,0.0595550537109375,0.012481689453125,-1.0473175048828125
20220122-1222,2022-01-22 12:22:40Z,u01, 60,40,movements,el-ex, rt, d,292441.098242375, 0.014709773326560458, -0.04823790170225887, -0.11485114994101972, -0.25886452198028564, 0.011836467310786247, -0.3030376732349396, 0.014692132361233234, 0.04821919649839401, -0.9987286925315857, 0.04266560822725296, -0.03167877718806267, 0.008387565612792969, -0.023654206257375646, 0.00872467224866904, 0.9980241235268378,-0.057552850766572336,0.01800537109375,0.0001373291015625,-1.03302001953125
20220122-1222,2022-01-22 12:22:40Z,u01, 61,40,movements,el-ex, rt, d,292441.123187375, 0.013761823469352733, -0.054952326645533706, -0.12114715903603593, -0.21749068796634674, -0.04330501705408096, -0.2195536196231842, 0.013740615919232368, 0.054924674332141876, -0.9983959794044495, 0.0369948111474514, -0.02430039271712303, -0.018861711025238037, -0.027005283111447263, 0.008528707630316646, 0.9977542587190887,-0.06070094544695533,0.042877197265625,0.0257568359375,-1.027008056640625
20220122-1222,2022-01-22 12:22:40Z,u01, 62,40,movements,el-ex, rt, d,292441.14813237503, 0.01310352877624099, -0.0599409917475938, -0.12606873592440818, -0.21340955793857574, -0.015025507658720016, -0.18212908506393433, 0.013079621829092503, 0.05990510433912277, -0.9981184005737305, 0.009640667587518692, -0.02650371938943863, -0.03053760528564453, -0.029493328383751096, 0.008423365924282632, 0.9975320860791693,-0.06315892833766046,0.055816650390625,0.01678466796875,-0.9901275634765625
20220122-1222,2022-01-22 12:22:40Z,u01, 63,40,movements,el-ex, rt, d,292441.17307737505, 0.012152708799729673, -0.06601315492830381, -0.13023525287495286, -0.24858950078487396, -0.039885781705379486, -0.18004004657268524, 0.01212594099342823, 0.06596522033214569, -0.9977482557296753, 0.01710985228419304, -0.014253288507461548, -0.04201614856719971, -0.03253485285557388, 0.008207497256184644, 0.9973056855070754,-0.06523506637651794,0.046478271484375,0.0319061279296875,-1.022491455078125
20220122-1222,2022-01-22 12:22:40Z,u01, 64,40,movements,el-ex, rt, d,292441.198022375, 0.0104244028758369, -0.07082373393791484, -0.1344878132012586, -0.1057901680469513, -0.07616342604160309, -0.13521698117256165, 0.010398081503808498, 0.07076454162597656, -0.9974388480186462, 0.016350530087947845, 0.01418103277683258, -0.01226574182510376, -0.03497396461347731, 0.007576045159192476, 0.997088624283478,-0.06733431381872991,0.0219268798828125,0.032470703125,-1.0258941650390625
20220122-1222,2022-01-22 12:22:40Z,u01, 65,40,movements,el-ex, rt, d,292441.222967375, 0.007991892599547135, -0.07150638320923974, -0.13775876131273018, -0.014766581356525421, -0.10288438946008682, -0.15089832246303558, 0.007971384562551975, 0.07144546508789062, -0.9974126815795898, 0.0024198032915592194, 0.005184069275856018, -0.0023889541625976562, -0.03538568368950517, 0.006444079427338331, 0.9969734219034666,-0.06892289200746707,0.0284576416015625,0.05511474609375,-1.03814697265625
20220122-1222,2022-01-22 12:22:40Z,u01, 66,40,movements,el-ex, rt, d,292441.24791337503, 0.00509437285751211, -0.0740717926993085, -0.14153794604907985, -0.2009430080652237, -0.11564445495605469, -0.1392473429441452, 0.005080381873995066, 0.07400407642126083, -0.9972450137138367, 0.00810316577553749, -0.02537441998720169, -0.00533372163772583, -0.03675464030714228, 0.005157263558701412, 0.9968029797449468,-0.07075527771987287,0.027069091796875,0.0858154296875,-1.0114288330078125
20220122-1222,2022-01-22 12:22:40Z,u01, 67,40,movements,el-ex, rt, d,292441.27285837504, 0.0015318330363342759, -0.07957103679626812, -0.14461929807237583, -0.17339079082012177, -0.13522301614284515, -0.13312959671020508, 0.0015269855502992868, 0.07948709279298782, -0.9968347549438477, 0.0033557815477252007, -0.011036284267902374, -0.034262657165527344, -0.03961578044914834, 0.0036369218771117257, 0.9965950262955537,-0.07221984375948313,0.0087890625,0.0759735107421875,-1.0012664794921875
20220122-1222,2022-01-22 12:22:40Z,u01, 68,40,movements,el-ex, rt, d,292441.297803375, -0.001433549955893816, -0.08118419394086195, -0.14882998475032286, -0.004659584723412991, -0.10110799223184586, -0.20535218715667725, -0.0014288278762251139, 0.08109504729509354, -0.9967053532600403, -0.015447437763214111, 0.018498972058296204, -0.004332244396209717, -0.04052187561839238, 0.002302841254479453, 0.9964129637720134,-0.07425605990635326,0.0130157470703125,0.04949951171875,-1.00189208984375
20220122-1222,2022-01-22 12:22:41Z,u01, 69,40,movements,el-ex, rt, d,292441.322748375, -0.003947017266127771, -0.08250065056442897, -0.15427093392177058, -0.19098855555057526, -0.09811133146286011, -0.21813556551933289, -0.003933582454919815, 0.08240709453821182, -0.9965909719467163, -0.002063166815787554, -0.01426144689321518, 0.01880776882171631, -0.04126787340184879, 0.0012118358316236281, 0.9961827163733519,-0.0769121542058187,0.0041046142578125,0.0719146728515625,-1.03131103515625
20220122-1222,2022-01-22 12:22:41Z,u01, 70,40,movements,el-ex, rt, d,292441.347693375, -0.006781507816295092, -0.08756469327553099, -0.15951264508130333, -0.34058505296707153, -0.13068778812885284, -0.21023038029670715, -0.006755473557859659, 0.08745283633470535, -0.9961457848548889, 0.01125677302479744, -0.030324041843414307, 0.006552278995513916, -0.04389886344311853, 0.00011035381782492073, 0.9958720255740625,-0.07944704939285098,-0.0164337158203125,0.100738525390625,-1.004547119140625
20220122-1222,2022-01-22 12:22:41Z,u01, 71,40,movements,el-ex, rt, d,292441.37263837503, -0.01017026448639983, -0.09494250777681587, -0.16509452947590772, -0.22191840410232544, -0.09823551028966904, -0.21696117520332336, -0.010124286636710167, 0.0947999358177185, -0.9954448342323303, 0.00032810028642416, -0.00927453488111496, 0.007743477821350098, -0.04771004208591865, -0.0011494334471292389, 0.9954792768982336,-0.08211910841129254,-0.003387451171875,0.0634613037109375,-0.97552490234375
20220122-1222,2022-01-22 12:22:41Z,u01, 72,40,movements,el-ex, rt, d,292441.39758316666, -0.012828151088250075, -0.09799204705006836, -0.1700973766337598, -0.03212705999612808, -0.08431310206651688, -0.18459051847457886, -0.012766259722411633, 0.09783529490232468, -0.9951207637786865, -0.0009514344856142998, 0.0022775083780288696, 0.030490636825561523, -0.04934258484793036, -0.002222904222373626, 0.9951961115861434,-0.08452950111272542,0.00616455078125,0.0528106689453125,-0.9865570068359375
20220122-1222,2022-01-22 12:22:41Z,u01, 73,40,movements,el-ex, rt, d,292441.4225291667, -0.014832302530891302, -0.09787312921265584, -0.17458512134265167, -0.014036208391189575, -0.02898113615810871, -0.17381350696086884, -0.014760777354240417, 0.09771694988012314, -0.9951047897338867, -0.002222297713160515, -0.010848768055438995, 0.04123210906982422, -0.04937521153727724, -0.003114446672721198, 0.9950041098949137,-0.08671358382325461,-0.01116943359375,0.08880615234375,-0.98565673828125
20220122-1222,2022-01-22 12:22:41Z,u01, 74,40,movements,el-ex, rt, d,292441.4474741667, -0.014744551710619043, -0.10048284893979635, -0.1795179012213129, -0.21907870471477509, 0.08287882059812546, -0.20865032076835632, -0.014669646508991718, 0.10031384229660034, -0.9948477149009705, -0.0014436766505241394, -0.034548573195934296, 0.06558746099472046, -0.05067676009788124, -0.002831718717092568, 0.9947238205132213,-0.08915418255063118,-0.0138092041015625,0.1000823974609375,-0.9658203125
20220122-1222,2022-01-22 12:22:41Z,u01, 75,40,movements,el-ex, rt, d,292441.4724191667, -0.014169402902166608, -0.10819902065439872, -0.18274846517424376, -0.3429591655731201, -0.03865200653672218, -0.004057626239955425, -0.014086071401834488, 0.10798802971839905, -0.9940524101257324, 0.033586762845516205, -0.018754735589027405, 0.04835844039916992, -0.05449169952445722, -0.002110871900566772, 0.9943814243045979,-0.09072985529372932,-0.0176544189453125,0.081695556640625,-0.951995849609375
20220122-1222,2022-01-22 12:22:41Z,u01, 76,40,movements,el-ex, rt, d,292441.49736416666, -0.015860912132163923, -0.11280399769008541, -0.18233869710842662, -0.04698580503463745, -0.06769850850105286, -0.03506553918123245, -0.01575944572687149, 0.11256491392850876, -0.9935193657875061, 0.003765994682908058, 0.0061178430914878845, 0.013325273990631104, -0.056857072231551634, -0.0027527504283770027, 0.9942728831321042,-0.0904502703363419,-0.0200042724609375,0.0628204345703125,-0.93084716796875
20220122-1222,2022-01-22 12:22:41Z,u01, 77,40,movements,el-ex, rt, d,292441.52230916667, -0.017000129070899817, -0.1150503392201652, -0.18476201590950148, -0.18904364109039307, 0.0076542384922504425, -0.09993276000022888, -0.01688692718744278, 0.1147966980934143, -0.9932454824447632, -0.012333694845438004, 0.004832111299037933, 0.009511351585388184, -0.058029040799701725, -0.0031461584013224683, 0.9940980797365268,-0.09160713087661825,0.0213165283203125,0.089324951171875,-0.9497833251953125
20220122-1222,2022-01-22 12:22:41Z,u01, 78,40,movements,el-ex, rt, d,292441.5472541667, -0.016802718350793857, -0.12083581167772525, -0.1862470258904261, -0.3171333372592926, -0.0183249618858099, -0.0032531507313251495, -0.016679411754012108, 0.12054196745157242, -0.9925680756568909, 0.0038467273116111755, -0.051557086408138275, 0.03503328561782837, -0.06089720559675833, -0.0027350131063299627, 0.9938625963751818,-0.09231094762428155,-0.007354736328125,0.112640380859375,-0.9795074462890625
20220122-1222,2022-01-22 12:22:41Z,u01, 79,40,movements,el-ex, rt, d,292441.5721991667, -0.017930536835263088, -0.1283355069136077, -0.18513735354873478, -0.26280421018600464, -0.06269222497940063, 0.0993538498878479, -0.01778212934732437, 0.12798351049423218, -0.9916168451309204, 0.005773419514298439, -0.02036339044570923, -0.00423276424407959, -0.06467361883595842, -0.0029812568827113457, 0.9936826081987803,-0.09167016257381416,-0.0276031494140625,0.111846923828125,-0.9805908203125
20220122-1222,2022-01-22 12:22:41Z,u01, 80,40,movements,el-ex, rt, d,292441.59714516666, -0.018160722567165572, -0.1313693324433727, -0.18307708452833735, 0.036597076803445816, 0.02381776086986065, 0.034008268266916275, -0.018003249540925026, 0.13099180161952972, -0.9912199974060059, -0.003450648859143257, -0.010233864188194275, 0.02784109115600586, -0.06618818279394165, -0.003022999934100597, 0.9936793812329823,-0.09061636284269714,-0.0143585205078125,0.0645599365234375,-0.9544219970703125
20220122-1222,2022-01-22 12:22:41Z,u01, 81,40,movements,el-ex, rt, d,292441.62209016667, -0.017185067478714004, -0.12913971410951278, -0.1820423009054811, 0.03691086173057556, 0.02950880490243435, 0.07582029700279236, -0.017041129991412163, 0.12878106534481049, -0.9915266036987305, 0.01276862621307373, -0.025738567113876343, 0.02230358123779297, -0.065034903589592, -0.0026742110058408774, 0.9937989023155417,-0.09015061832968768,-0.0124969482421875,0.1113739013671875,-0.997161865234375
20220122-1222,2022-01-22 12:22:41Z,u01, 82,40,movements,el-ex, rt, d,292441.6470351667, -0.01637452718620668, -0.12685914647807184, -0.17900912496063284, 0.050690989941358566, -0.010418903082609177, 0.16310301423072815, -0.016242219135165215, 0.12651915848255157, -0.9918311834335327, 0.027579456567764282, 0.0006169676780700684, -0.028722405433654785, -0.06386154161805721, -0.002472333701861879, 0.9940073057811896,-0.08868547892862005,-0.02252197265625,0.12078857421875,-0.9650421142578125
20220122-1222,2022-01-22 12:22:41Z,u01, 83,40,movements,el-ex, rt, d,292441.6719801667, -0.016130111795325155, -0.12127041304917356, -0.1745028559186283, 0.4410008192062378, 0.011018743738532066, 0.15757721662521362, -0.0160109531134367, 0.1209733858704567, -0.9925265908241272, 0.017185838893055916, 0.01556214690208435, -0.030514121055603027, -0.06106707592481802, -0.0027391349809253247, 0.9943754979373307,-0.08649093101873648,-0.001129150390625,0.10003662109375,-0.9730224609375
20220122-1222,2022-01-22 12:22:41Z,u01, 84,40,movements,el-ex, rt, d,292441.6969251667, -0.015114156229382555, -0.10748870733054429, -0.17071240154601175, 0.5880404114723206, 0.012945475056767464, 0.14608080685138702, -0.015026355162262917, 0.10728184133768082, -0.9941151142120361, 0.026165228337049484, 0.028216101229190826, 0.0007374286651611328, -0.0541647099125688, -0.0029391131042639084, 0.9949269678531504,-0.08472259202083977,0.0119171142578125,0.1226654052734375,-1.0157318115234375
20220122-1222,2022-01-22 12:22:41Z,u01, 85,40,movements,el-ex, rt, d,292441.72187016666, -0.014821091181996471, -0.09731659950273502, -0.16675651414309062, 0.1686987578868866, -0.021314362064003944, 0.1578686386346817, -0.014750424772500992, 0.09716306626796722, -0.9951591491699219, 0.02915467694401741, -0.02746102213859558, 0.017299652099609375, -0.04908522847005249, -0.00332535849630563, 0.9953492335071801,-0.08282164490246016,-0.000335693359375,0.1407470703125,-1.0193634033203125
20220122-1222,2022-01-22 12:22:41Z,u01, 86,40,movements,el-ex, rt, d,292441.74681516667, -0.016213555045837574, -0.09737605538146504, -0.16175516366670287, -0.04246535152196884, -0.12293273210525513, 0.24464920163154602, -0.016136039048433304, 0.097222238779068, -0.9951319098472595, 0.03334790840744972, -0.07616521418094635, -0.008453965187072754, -0.049162265494489966, -0.00413881925632334, 0.995549281805504,-0.08029778923419115,0.0094146728515625,0.1420745849609375,-0.9921722412109375
20220122-1222,2022-01-22 12:22:41Z,u01, 87,40,movements,el-ex, rt, d,292441.7717601667, -0.018882011953962077, -0.09507495694973116, -0.1554738093275, 0.27109286189079285, -0.12613511085510254, 0.24569135904312134, -0.018795618787407875, 0.09493178874254227, -0.9953063130378723, 0.021160686388611794, 0.014488890767097473, -0.017923057079315186, -0.04810629328988227, -0.0057115803801131276, 0.9958441707957738,-0.07712017648352448,0.016357421875,0.061981201171875,-0.9762115478515625
20220122-1222,2022-01-22 12:22:41Z,u01, 88,40,movements,el-ex, rt, d,292441.7967061667, -0.020755841721735196, -0.08477258316343855, -0.14893609842123295, 0.44003826379776, -0.08517590165138245, 0.26002854108810425, -0.02067982219159603, 0.08467108756303787, -0.9961943626403809, 0.02136642299592495, 0.01203901320695877, 0.01902151107788086, -0.04302528555868192, -0.007187283897089788, 0.9963120390626534,-0.07388988430331692,0.019500732421875,0.0181121826171875,-1.00543212890625
20220122-1222,2022-01-22 12:22:41Z,u01, 89,40,movements,el-ex, rt, d,292441.8216511667, -0.022908285294982133, -0.07817368405001889, -0.14203832354001591, 0.11253149062395096, -0.14160215854644775, 0.2846393585205078, -0.02283632569015026, 0.07809408754110336, -0.9966844320297241, 0.02726132795214653, -0.06391877681016922, 0.02573716640472412, -0.03978796816983378, -0.008643598977477561, 0.9966837424980717,-0.07045417053022898,0.0019989013671875,0.1169586181640625,-1.0117950439453125
20220122-1222,2022-01-22 12:22:41Z,u01, 90,40,movements,el-ex, rt, d,292441.84659616667, -0.02624078842719007, -0.07502703355232217, -0.13465739440794497, 0.16717837750911713, -0.1595294177532196, 0.31309664249420166, -0.026163965463638306, 0.07495666295289993, -0.9968435168266296, 0.022242410108447075, -0.0007990673184394836, -0.00024205446243286133, -0.03829858880031716, -0.01055806258732687, 0.9969796003755207,-0.06673377341103602,0.0009918212890625,0.106781005859375,-0.9792633056640625
20220122-1222,2022-01-22 12:22:41Z,u01, 91,40,movements,el-ex, rt, d,292441.8715411667, -0.029207027947775147, -0.06946849782054551, -0.1250889763874566, 0.31571751832962036, -0.143861785531044, 0.42302578687667847, -0.029132438823580742, 0.06941263377666473, -0.9971625804901123, 0.024295352399349213, 0.007506817579269409, -0.010665178298950195, -0.035567859758355615, -0.012395299578663733, 0.9973680604368366,-0.06195322831476679,0.004730224609375,0.0065460205078125,-0.9727935791015625
20220122-1222,2022-01-22 12:22:41Z,u01, 92,40,movements,el-ex, rt, d,292441.8964861667, -0.032264827815161566, -0.06131700692986503, -0.11474948922202405, 0.3089914917945862, -0.1563657969236374, 0.38088878989219666, -0.03219860419631004, 0.06127859279513359, -0.9976012110710144, 0.03378546983003616, -0.014937754720449448, -0.051760971546173096, -0.031523888329539014, -0.014340046367970156, 0.9977838890659909,-0.05681518128142035,-0.004241943359375,0.062530517578125,-0.9948577880859375
20220122-1222,2022-01-22 12:22:41Z,u01, 93,40,movements,el-ex, rt, d,292441.9214311667, -0.03618958227604317, -0.056127341382083834, -0.10507218399828297, 0.1441093236207962, -0.21779505908489227, 0.3868960738182068, -0.03612470626831055, 0.05609787628054619, -0.9977715611457825, 0.04930825158953667, 0.024834632873535156, -0.05999821424484253, -0.02896645129924073, -0.016588481815483395, 0.9980903438989425,-0.051975645878418665,-0.00531005859375,0.0708465576171875,-1.0109100341796875
20220122-1222,2022-01-22 12:22:41Z,u01, 94,40,movements,el-ex, rt, d,292441.94637616666, -0.042392078403516165, -0.0530498826806599, -0.09598814100035977, 0.15638889372348785, -0.2990691661834717, 0.32954198122024536, -0.04231976345181465, 0.053025003522634506, -0.997696042060852, 0.055259160697460175, 0.04952921345829964, -0.10076892375946045, -0.02750179930481337, -0.01989048299020936, 0.9982998652954161,-0.04738652805417817,0.000244140625,0.0442047119140625,-1.046234130859375
20220122-1222,2022-01-22 12:22:41Z,u01, 95,40,movements,el-ex, rt, d,292441.9713221667, -0.04921530720395141, -0.0503499894656128, -0.08802092461185652, 0.08376891165971756, -0.2724291980266571, 0.2913224697113037, -0.049133095890283585, 0.05032871663570404, -0.9975234270095825, 0.030761461704969406, 0.0438331663608551, -0.06433570384979248, -0.026222539270584, -0.02346640209362895, 0.9984400350749875,-0.043350228501541035,0.014678955078125,0.0827484130859375,-1.060211181640625
20220122-1222,2022-01-22 12:22:41Z,u01, 96,40,movements,el-ex, rt, d,292441.9962671667, -0.05541677174992821, -0.049320902861953994, -0.08087551930103468, 0.07746861129999161, -0.2708708643913269, 0.28158557415008545, -0.05532105639576912, 0.0493009090423584, -0.9972507357597351, -0.0021893754601478577, 0.013839859515428543, -0.018816769123077393, -0.025748013255698924, -0.026677317457813626, 0.9985228793212819,-0.03971634918472085,0.0160064697265625,0.1003570556640625,-1.0989837646484375
20220122-1222,2022-01-22 12:22:41Z,u01, 97,40,movements,el-ex, rt, d,292442.0212121667, -0.0617045198805186, -0.04458611963908133, -0.07373038684955054, 0.3777500092983246, -0.2319527566432953, 0.26624444127082825, -0.0616040900349617, 0.044571347534656525, -0.9971050024032593, -0.008311741054058075, 0.04193062335252762, -0.026301980018615723, -0.0234021215651885, -0.02999755502883675, 0.9986221023337439,-0.03614299318881945,-0.0237884521484375,0.091949462890625,-1.0579376220703125
20220122-1222,2022-01-22 12:22:41Z,u01, 98,40,movements,el-ex, rt, d,292442.0461571667, -0.06657348947146904, -0.03160010159213644, -0.06611416774169228, 0.6400849223136902, -0.21447177231311798, 0.26068615913391113, -0.06649111211299896, 0.03159484267234802, -0.9972866773605347, 0.007897302508354187, 0.02762441709637642, 0.026644587516784668, -0.016881835726249846, -0.032736365715144655, 0.9987927359879909,-0.03250310502147679,-0.055450439453125,0.0634307861328125,-1.0139617919921875
20220122-1222,2022-01-22 12:22:41Z,u01, 99,40,movements,el-ex, rt, d,292442.07110216666, -0.07197864592639487, -0.018518893176481043, -0.05853210014653013, 0.37370485067367554, -0.22115537524223328, 0.3049003481864929, -0.07190417498350143, 0.018517835065722466, -0.9972396492958069, 0.013981752097606659, -0.007943596690893173, 0.056321680545806885, -0.010302197901215985, -0.03569383339779212, 0.998891487258327,-0.02890864728300134,-0.070404052734375,0.0891265869140625,-1.0201416015625
20220122-1222,2022-01-22 12:22:41Z,u01, 100,40,movements,el-ex, rt, d,292442.0960471667, -0.07766524840675007, -0.011643288999284032, -0.04933323113994234, 0.3535899817943573, -0.23635436594486237, 0.3489484190940857, -0.07758193463087082, 0.011643026024103165, -0.9969179630279541, 0.0027832910418510437, -0.03193731978535652, 0.06842070817947388, -0.006772968720629146, -0.03866692179708595, 0.9989307506134305,-0.024419160354954658,-0.0601806640625,0.0644073486328125,-0.9730682373046875
20220122-1222,2022-01-22 12:22:41Z,u01, 101,40,movements,el-ex, rt, d,292442.1209921667, -0.08313313660164816, -0.000872147851324688, -0.040650613613641466, 0.5216777920722961, -0.21566027402877808, 0.3044491410255432, -0.08303738385438919, 0.0008721477352082729, -0.9965460300445557, 0.0028829053044319153, 0.04623163118958473, 0.04928046464920044, -0.001280158741868345, -0.04153715378720272, 0.9989302241227809,-0.02028823141963214,-0.0587158203125,0.0059051513671875,-0.9342193603515625
20220122-1222,2022-01-22 12:22:41Z,u01, 102,40,movements,el-ex, rt, d,292442.1459381667, -0.0886289176944748, 0.009730916348491861, -0.03132557679290629, 0.32467150688171387, -0.23003362119197845, 0.3683655560016632, -0.088508740067482, -0.009730762802064419, -0.9960278868675232, 0.01102454960346222, -6.548315286636353e-05, 0.0879926085472107, 0.004166241764936801, -0.044370123078270846, 0.9988806195411918,-0.01586209784489457,-0.0726318359375,-0.0248870849609375,-0.926116943359375
20220122-1222,2022-01-22 12:22:41Z,u01, 103,40,movements,el-ex, rt, d,292442.17088316666, -0.0945377781725359, 0.013940170511104142, -0.021921802140262958, 0.2236950844526291, -0.22117328643798828, 0.33761563897132874, -0.09438785165548325, -0.013939718715846539, -0.9954379200935364, 0.0017058998346328735, -0.06720662117004395, 0.09915190935134888, 0.006443931259657029, -0.04732361069644614, 0.998795215587564,-0.011277495327140376,-0.079498291015625,0.05120849609375,-0.9440460205078125
20220122-1222,2022-01-22 12:22:41Z,u01, 104,40,movements,el-ex, rt, d,292442.1958281667, -0.10014176992926771, 0.020284483653942944, -0.013248851153464483, 0.3358861207962036, -0.21873828768730164, 0.3136030435562134, -0.09995391219854355, -0.020283091813325882, -0.9947853088378906, -0.021490849554538727, 0.025608308613300323, 0.0502052903175354, 0.009797601603066431, -0.05011339173336609, 0.9986701159296941,-0.007123333276001009,-0.0771942138671875,-0.0023956298828125,-0.9030914306640625
20220122-1222,2022-01-22 12:22:41Z,u01, 105,40,movements,el-ex, rt, d,292442.2207731667, -0.10576438711437586, 0.02713074132369397, -0.004897245111369352, 0.21456341445446014, -0.22192156314849854, 0.2964618504047394, -0.10552846640348434, -0.02712741307914257, -0.9940462112426758, -0.023393109440803528, 0.014950796961784363, 0.06605243682861328, 0.013416534309780192, -0.05288569409190621, 0.998505479350936,-0.0031619800132805867,-0.094451904296875,-0.0824127197265625,-0.9017791748046875
20220122-1222,2022-01-22 12:22:41Z,u01, 106,40,movements,el-ex, rt, d,292442.2457181667, -0.11131117099993518, 0.02891383676228752, 0.0029206315595816123, 0.09720633178949356, -0.2060205489397049, 0.30786052346229553, -0.11103502660989761, -0.02890980802476406, -0.9933959245681763, -0.003314405679702759, -0.004201866686344147, 0.05800163745880127, 0.014515239953494548, -0.05559990758144253, 0.9983473861314932,0.0006537377038573072,-0.11932373046875,0.0023040771484375,-0.9469146728515625
20220122-1222,2022-01-22 12:22:41Z,u01, 107,40,movements,el-ex, rt, d,292442.2706631667, -0.11770232128047263, 0.033138992438759646, 0.01056387286669957, 0.3365478217601776, -0.31909385323524475, 0.2218063324689865, -0.117366261780262, -0.033132925629615784, -0.9925358295440674, 0.01902329921722412, 0.06915882229804993, 0.006833314895629883, 0.016850446276111423, -0.05872093323506139, 0.9981230388082626,0.00429753058880971,-0.12799072265625,-0.017303466796875,-0.92889404296875
20220122-1222,2022-01-22 12:22:41Z,u01, 108,40,movements,el-ex, rt, d,292442.29560816666, -0.12876247451649206, 0.03831630755970792, 0.015390702450777066, -0.07843737304210663, -0.5416096448898315, 0.14991331100463867, -0.12831270694732666, -0.038306932896375656, -0.9909936785697937, 0.056855738162994385, 0.006110783666372299, 0.009304225444793701, 0.019611724315946932, -0.06417594266686623, 0.9977251133664885,0.006445461213409477,-0.1168670654296875,-0.0396575927734375,-0.9253387451171875
20220122-1222,2022-01-22 12:22:41Z,u01, 109,40,movements,el-ex, rt, d,292442.3205541667, -0.1433045919111151, 0.029905662125814872, 0.01815327034218156, -0.3540964722633362, -0.5660039186477661, 0.15886585414409637, -0.14275075495243073, -0.029901204630732536, -0.9893069267272949, 0.016697824001312256, -0.11511842906475067, -0.05202913284301758, 0.015563015965928002, -0.0714446784960466, 0.9972912576680482,0.007981804325455352,-0.0958099365234375,0.037506103515625,-0.9906768798828125
20220122-1222,2022-01-22 12:22:42Z,u01, 110,40,movements,el-ex, rt, d,292442.3454991667, -0.1553830927439129, 0.024378782353502167, 0.02197129617702689, -0.017541062086820602, -0.42065009474754333, 0.22138068079948425, -0.15471260249614716, -0.024376368150115013, -0.9876587390899658, -0.02373899519443512, 0.0658343955874443, 0.037204086780548096, 0.013004141064166107, -0.07746946480218342, 0.9968597076999479,0.010005496481829003,-0.0702667236328125,-0.0174713134765625,-0.9849090576171875
20220122-1222,2022-01-22 12:22:42Z,u01, 111,40,movements,el-ex, rt, d,292442.3704441667, -0.16639038164730527, 0.028903599484386557, 0.027723966006916616, 0.4374527633190155, -0.44411081075668335, 0.1463550478219986, -0.1655544936656952, -0.028899574652314186, -0.9857771396636963, -0.0002781003713607788, 0.08923272788524628, 0.03693985939025879, 0.015551691919182835, -0.08288296100574043, 0.9963582017701221,0.012611375992252039,-0.13397216796875,-0.146514892578125,-1.0487823486328125
20220122-1222,2022-01-22 12:22:42Z,u01, 112,40,movements,el-ex, rt, d,292442.3953897917, -0.17732752362554677, 0.03790401878352905, 0.03296362775952698, 0.25347593426704407, -0.409299373626709, 0.18272416293621063, -0.1762729287147522, -0.03789494186639786, -0.9836116433143616, 0.019824504852294922, 0.0017009899020195007, 0.08377033472061157, 0.020332966229883995, -0.08820860068641616, 0.9957855561787703,0.014735552576671439,-0.1797027587890625,0.0236968994140625,-0.9566497802734375
20220122-1222,2022-01-22 12:22:42Z,u01, 113,40,movements,el-ex, rt, d,292442.4203347917, -0.18674594674103137, 0.04087697708195993, 0.03914049244805514, 0.15436990559101105, -0.30466610193252563, 0.22948269546031952, -0.18550731241703033, -0.040865592658519745, -0.9817927479743958, 0.0027527213096618652, -0.027554918080568314, 0.06411397457122803, 0.022168322318652543, -0.09280183356549039, 0.9952826943179933,0.017574549531193275,-0.164306640625,0.0529327392578125,-0.946624755859375
20220122-1222,2022-01-22 12:22:42Z,u01, 114,40,movements,el-ex, rt, d,292442.44527979166, -0.19310375017210163, 0.04785331937204847, 0.04545363377871174, 0.5431585311889648, -0.19532524049282074, 0.17432063817977905, -0.19168619811534882, -0.047835059463977814, -0.980289876461029, 0.010899975895881653, 0.06646593660116196, 0.03975337743759155, 0.025996891277281095, -0.09580830026015442, 0.9948530815644181,0.02030678376889647,-0.155426025390625,-0.02984619140625,-0.8986663818359375
20220122-1222,2022-01-22 12:22:42Z,u01, 115,40,movements,el-ex, rt, d,292442.4702247917, -0.1976115973933518, 0.0644237261616896, 0.052669939372129604, 0.7867075204849243, -0.14362375438213348, 0.13846537470817566, -0.1959206908941269, -0.06437917053699493, -0.9785041809082031, 0.027722984552383423, 0.07315286993980408, 0.09749221801757812, 0.034634267360957934, -0.09771583237447602, 0.9943452394981467,0.02301401137158112,-0.1857452392578125,-0.06549072265625,-0.9138031005859375
20220122-1222,2022-01-22 12:22:42Z,u01, 116,40,movements,el-ex, rt, d,292442.4951707917, -0.20182517128604435, 0.07746426034968022, 0.060456437809831225, 0.3228575885295868, -0.12242599576711655, 0.27593863010406494, -0.19985663890838623, -0.07738681137561798, -0.9767643809318542, 0.01954345405101776, -0.08833900094032288, 0.11438339948654175, 0.041550335615136276, -0.09945547501368547, 0.9938302406144655,0.026148132821029495,-0.183441162109375,0.0113525390625,-0.93603515625
20220122-1222,2022-01-22 12:22:42Z,u01, 117,40,movements,el-ex, rt, d,292442.5201157917, -0.20371466629078205, 0.07812829961802317, 0.06804524864612099, 0.02066418156027794, 0.013799216598272324, 0.2784952223300934, -0.2016914337873459, -0.07804884016513824, -0.9763344526290894, 0.004456266760826111, -0.09240718185901642, 0.03726285696029663, 0.04228546827753049, -0.10022333110495026, 0.9936179691558582,0.029845152922192017,-0.1688385009765625,-0.000152587890625,-0.8661346435546875
20220122-1222,2022-01-22 12:22:42Z,u01, 118,40,movements,el-ex, rt, d,292442.54506079166, -0.20337644789184295, 0.0844384850654735, 0.07605259682527314, 0.6070138216018677, 0.050346311181783676, 0.2768659293651581, -0.20125773549079895, -0.08433818072080612, -0.9759008288383484, -0.002660810947418213, 0.04678620398044586, 0.00020807981491088867, 0.04581411329337289, -0.09975299732996569, 0.9933920496485852,0.03350561000018286,-0.177734375,-0.157440185546875,-0.854400634765625
20220122-1222,2022-01-22 12:22:42Z,u01, 119,40,movements,el-ex, rt, d,292442.57000579167, -0.2024920465022218, 0.09846714143032403, 0.08665068188443607, 0.5236498713493347, 0.09184834361076355, 0.3186419904232025, -0.20013689994812012, -0.09830810129642487, -0.9748234152793884, -0.00034840404987335205, 0.03478565812110901, 0.0427403450012207, 0.05328806798010923, -0.09873531501591296, 0.992956461305063,0.03806826121916576,-0.1987762451171875,-0.16400146484375,-0.9485931396484375
20220122-1222,2022-01-22 12:22:42Z,u01, 120,40,movements,el-ex, rt, d,292442.5949507917, -0.20111774553494133, 0.10337094205153542, 0.09659635199266356, 0.04933623597025871, 0.09284703433513641, 0.37152916193008423, -0.19869832694530487, -0.1031869426369667, -0.9746134877204895, 0.015089243650436401, -0.06627725809812546, -0.0023456811904907227, 0.05618179756963712, -0.09765686782573117, 0.992711392901859,0.04279103337528087,-0.2041778564453125,-0.048583984375,-0.97467041015625
20220122-1222,2022-01-22 12:22:42Z,u01, 121,40,movements,el-ex, rt, d,292442.6198957917, -0.19939409639576444, 0.10285119692907077, 0.10511929844227971, 0.15062427520751953, 0.08904063701629639, 0.3253154158592224, -0.1970287412405014, -0.10266996175050735, -0.9750069379806519, 0.01169539988040924, 0.022530697286128998, -0.05461031198501587, 0.05629909738418125, -0.09657605649500056, 0.9926154714076207,0.047096302515732845,-0.19970703125,-0.07977294921875,-0.9244537353515625
20220122-1222,2022-01-22 12:22:42Z,u01, 122,40,movements,el-ex, rt, d,292442.6448407917, -0.19808386903768968, 0.10935380141823191, 0.11519735362714639, 0.4303577244281769, 0.09773892164230347, 0.37364447116851807, -0.19561555981636047, -0.10913598537445068, -0.9745891094207764, -0.013918206095695496, 0.04837538301944733, -0.03958630561828613, 0.05997535965849495, -0.09543799342576445, 0.9922756922124533,0.05180430636624825,-0.185516357421875,-0.1733245849609375,-0.9655914306640625
20220122-1222,2022-01-22 12:22:42Z,u01, 123,40,movements,el-ex, rt, d,292442.66978679167, -0.19673861764698927, 0.11877672824540957, 0.1268132569830961, 0.5430628061294556, 0.11571227014064789, 0.3664408028125763, -0.1940946727991104, -0.11849763989448547, -0.9737995266914368, -0.005826056003570557, 0.026563338935375214, -0.004838109016418457, 0.06515989643484757, -0.09409788717732899, 0.9917842764044864,0.057129222203616416,-0.1877288818359375,-0.07318115234375,-1.0299072265625
20220122-1222,2022-01-22 12:22:42Z,u01, 124,40,movements,el-ex, rt, d,292442.6947317917, -0.1955468466337976, 0.13181036022014397, 0.13831310771120284, 0.582731306552887, 0.06357675790786743, 0.36088746786117554, -0.1926175206899643, -0.1314290165901184, -0.9724324941635132, 0.008138671517372131, 0.007893756031990051, -0.017161011695861816, 0.0721171476824279, -0.09264384069363688, 0.9911339316707843,0.06220861929277996,-0.210540771484375,-0.057891845703125,-1.0114288330078125
20220122-1222,2022-01-22 12:22:42Z,u01, 125,40,movements,el-ex, rt, d,292442.7196767917, -0.19713966602046298, 0.13809058301947819, 0.15007923253119063, 0.10284607112407684, -0.05606095865368843, 0.4362996518611908, -0.19400069117546082, -0.13765212893486023, -0.9712958335876465, 0.006805792450904846, -0.011762037873268127, -0.03717273473739624, 0.07582251690315375, -0.09275247809602337, 0.9904899853513228,0.06765728201359061,-0.199798583984375,-0.093231201171875,-0.9739227294921875
20220122-1222,2022-01-22 12:22:42Z,u01, 126,40,movements,el-ex, rt, d,292442.7446217917, -0.19933346374174962, 0.13810165211400818, 0.15968433426568873, 0.1799590289592743, -0.04108666628599167, 0.32664066553115845, -0.19613075256347656, -0.1376630961894989, -0.9708664417266846, 0.0019625723361968994, 0.07354556024074554, -0.03619837760925293, 0.07635193976623972, -0.09347282854030767, 0.9900514480251196,0.07232907877383983,-0.184478759765625,-0.117584228515625,-0.9891204833984375
20220122-1222,2022-01-22 12:22:42Z,u01, 127,40,movements,el-ex, rt, d,292442.76956679166, -0.20259131968367158, 0.1488638550426385, 0.16967903722368646, 0.7057222723960876, -0.08250807225704193, 0.2917807400226593, -0.19898301362991333, -0.14831465482711792, -0.9687148928642273, -0.006247773766517639, 0.12126073241233826, -0.01617884635925293, 0.082261106664264, -0.09421075402209744, 0.9891882989376337,0.07657724162080384,-0.188629150390625,-0.15081787109375,-1.0130157470703125
20220122-1222,2022-01-22 12:22:42Z,u01, 128,40,movements,el-ex, rt, d,292442.79451179167, -0.2073714754061101, 0.16254633403162752, 0.17972481878320204, 0.4525202512741089, -0.1690550148487091, 0.24143467843532562, -0.20317447185516357, -0.16183149814605713, -0.9656763076782227, 0.02498224377632141, 0.040966540575027466, -0.004630088806152344, 0.08967950504438854, -0.09549575882347716, 0.9881003929126878,0.08059630448108084,-0.1880645751953125,-0.06976318359375,-1.023284912109375
20220122-1222,2022-01-22 12:22:42Z,u01, 129,40,movements,el-ex, rt, d,292442.8194567917, -0.2126272103138158, 0.16688706422107483, 0.18508670203571478, 0.08059646189212799, -0.1852779984474182, 0.09496742486953735, -0.20809677243232727, -0.1661134660243988, -0.9638993740081787, 0.0342990905046463, 0.04161691665649414, -0.038770854473114014, 0.09229347853516859, -0.09763304790458202, 0.987471569574957,0.08276347174025699,-0.20111083984375,-0.025604248046875,-0.97882080078125
20220122-1222,2022-01-22 12:22:42Z,u01, 130,40,movements,el-ex, rt, d,292442.8444027917, -0.218446735180739, 0.17296315927402184, 0.1877094613191801, 0.47221556305885315, -0.2445981800556183, 0.023802034556865692, -0.21347998082637787, -0.17210204899311066, -0.9616689682006836, 0.0291689932346344, 0.112516388297081, -0.02542203664779663, 0.09565880757198353, -0.1000745288847651, 0.9868500116923915,0.08343653589309291,-0.1805267333984375,-0.116180419921875,-0.9684295654296875
20220122-1222,2022-01-22 12:22:42Z,u01, 131,40,movements,el-ex, rt, d,292442.8693477917, -0.22652166317923778, 0.18599313398724907, 0.1921716634595476, 0.561298668384552, -0.32390454411506653, 0.054455749690532684, -0.2207159399986267, -0.18492263555526733, -0.9576471447944641, 0.025372833013534546, 0.04345829784870148, -0.03844654560089111, 0.10263793671447252, -0.10315942448290526, 0.9857431125546574,0.08446464510064222,-0.1750946044921875,-0.1194000244140625,-1.0060272216796875
20220122-1222,2022-01-22 12:22:42Z,u01, 132,40,movements,el-ex, rt, d,292442.89429279167, -0.234778612864119, 0.19626364766427085, 0.19558396106645598, 0.281593918800354, -0.30812716484069824, 0.03375899791717529, -0.22816169261932373, -0.19500607252120972, -0.9538945555686951, 0.03590087592601776, -0.011628523468971252, 0.06372743844985962, 0.10821535603916455, -0.10649951034464993, 0.9847380968011196,0.0850778041970631,-0.186370849609375,-0.0634002685546875,-0.9869384765625
20220122-1222,2022-01-22 12:22:42Z,u01, 133,40,movements,el-ex, rt, d,292442.9192377917, -0.24331137060708738, 0.20225385144893232, 0.19706275366475362, 0.28053319454193115, -0.32818686962127686, -0.05407285690307617, -0.2360069900751114, -0.20087775588035583, -0.9507622122764587, 0.07173077762126923, 0.08436153829097748, 0.07469415664672852, 0.11159948435026075, -0.11029249972774467, 0.9839532273859567,0.0849540850536742,-0.1965179443359375,-0.15478515625,-0.9969482421875
20220122-1222,2022-01-22 12:22:42Z,u01, 134,40,movements,el-ex, rt, d,292442.9441827917, -0.25102508603991913, 0.21176559680579973, 0.19705924466898267, 0.444791316986084, -0.28735432028770447, -0.1264485865831375, -0.24284818768501282, -0.21018637716770172, -0.9470197558403015, 0.06654804944992065, 0.08912305533885956, 0.11860489845275879, 0.11659049387819301, -0.11356394437820981, 0.9830938258943248,0.08388404962025788,-0.1966400146484375,-0.2122802734375,-0.891571044921875
20220122-1222,2022-01-22 12:22:42Z,u01, 135,40,movements,el-ex, rt, d,292442.9691277917, -0.2576831749459209, 0.22564472044517866, 0.19632279775800865, 0.6146562099456787, -0.26236772537231445, -0.21390573680400848, -0.24838070571422577, -0.2237347811460495, -0.9424700140953064, 0.0678538978099823, 0.07839474081993103, 0.14925724267959595, 0.1236245284249832, -0.11611182418801654, 0.9820803782988786,0.08217794358381161,-0.1649017333984375,-0.10772705078125,-0.873748779296875
20220122-1222,2022-01-22 12:22:42Z,u01, 136,40,movements,el-ex, rt, d,292442.9940727917, -0.2629850686829376, 0.24133503386506422, 0.193800883861773, 0.42217355966567993, -0.21358220279216766, -0.28710389137268066, -0.2524303197860718, -0.23899918794631958, -0.9376344084739685, 0.0518534779548645, 0.028916075825691223, 0.18070703744888306, 0.13136879860024148, -0.11800434031071956, 0.9810686890412667,0.07950744309760818,-0.1726226806640625,-0.1156158447265625,-0.837738037109375
20220122-1222,2022-01-22 12:22:42Z,u01, 137,40,movements,el-ex, rt, d,292443.01901779167, -0.26705321085649597, 0.24796765560569486, 0.18809231197099613, 0.005381232127547264, -0.2580048441886902, -0.276030570268631, -0.2558186948299408, -0.24543428421020508, -0.9350501894950867, 0.05389904975891113, -0.06688271462917328, 0.18607258796691895, 0.13442994485077062, -0.12001460509956223, 0.9806907483394735,0.07596625625229796,-0.1806182861328125,-0.145263671875,-0.7897186279296875
20220122-1222,2022-01-22 12:22:42Z,u01, 138,40,movements,el-ex, rt, d,292443.0439637917, -0.27153150650441804, 0.24699253702410992, 0.1798908987887711, -0.17970916628837585, -0.23500293493270874, -0.33902981877326965, -0.2600676119327545, -0.2444888800382614, -0.9341253042221069, 0.05270063877105713, 0.021390020847320557, 0.1599249243736267, 0.13362071900717634, -0.12281231009575262, 0.9807750968336171,0.07171459719163344,-0.1987457275390625,-0.19708251953125,-0.762237548828125
20220122-1222,2022-01-22 12:22:42Z,u01, 139,40,movements,el-ex, rt, d,292443.0689087917, -0.27323485355837773, 0.24849083745027822, 0.1692235369226025, 0.07784957438707352, -0.11964938044548035, -0.48183536529541016, -0.26155924797058105, -0.2459414303302765, -0.9333271384239197, 0.04038301110267639, 0.05442826449871063, 0.16521501541137695, 0.13375315232311677, -0.12428402776962058, 0.9809551653913902,0.06626056414626091,-0.200592041015625,-0.317108154296875,-0.7488555908203125
20220122-1222,2022-01-22 12:22:42Z,u01, 140,40,movements,el-ex, rt, d,292443.0938537917, -0.27307864505975277, 0.2560857509988999, 0.15763401800802387, 0.19314470887184143, -0.10021130740642548, -0.5327287316322327, -0.26090213656425476, -0.2532958984375, -0.9315423965454102, 0.050468116998672485, 0.00016775727272033691, 0.2367182970046997, 0.13674148292811103, -0.12462166382782706, 0.980901040838654,0.060037012277552114,-0.2050323486328125,-0.231842041015625,-0.76806640625
20220122-1222,2022-01-22 12:22:42Z,u01, 141,40,movements,el-ex, rt, d,292443.11879879166, -0.2724808806740216, 0.2589485646860694, 0.14433908484781638, -0.30343177914619446, -0.12670603394508362, -0.5244353413581848, -0.2601490318775177, -0.2560643255710602, -0.9309960007667542, 0.05838197469711304, -0.07669946551322937, 0.21043026447296143, 0.13729499388987196, -0.12510828807594526, 0.9811481974510295,0.053350414778695336,-0.221435546875,-0.1928863525390625,-0.7666015625
20220122-1222,2022-01-22 12:22:42Z,u01, 142,40,movements,el-ex, rt, d,292443.1437437917, -0.27147252876255423, 0.25270808916735904, 0.12804951904139344, -0.39016541838645935, -0.12781696021556854, -0.548958420753479, -0.2596335709095001, -0.2500269412994385, -0.9327791333198547, 0.02408355474472046, -0.07838806509971619, 0.09719264507293701, 0.13319204353065098, -0.1259774149244279, 0.9819804067206139,0.04586934920454774,-0.2105712890625,-0.24578857421875,-0.70672607421875
20220122-1222,2022-01-22 12:22:42Z,u01, 143,40,movements,el-ex, rt, d,292443.1686887917, -0.2690998627382214, 0.252273224099485, 0.11420108831744791, 0.107606902718544, 0.048622116446495056, -0.4852552115917206, -0.25744855403900146, -0.24960587918758392, -0.9334972500801086, -0.009015768766403198, -0.028012633323669434, 0.11242187023162842, 0.1320569214990169, -0.12574710588815421, 0.982449792720578,0.03925623993117889,-0.2016448974609375,-0.343841552734375,-0.7322998046875
20220122-1222,2022-01-22 12:22:42Z,u01, 144,40,movements,el-ex, rt, d,292443.1936337917, -0.26422523411953064, 0.25871385685570825, 0.10424019256663042, 0.03383850306272507, 0.10707257688045502, -0.4095088541507721, -0.2524699568748474, -0.25583741068840027, -0.9331699013710022, 0.028989702463150024, -0.0963355004787445, 0.14760178327560425, 0.13450399805663138, -0.12378897161832594, 0.9825540205028597,0.03424159783637461,-0.230224609375,-0.3363494873046875,-0.8306732177734375
20220122-1222,2022-01-22 12:22:42Z,u01, 145,40,movements,el-ex, rt, d,292443.21857979166, -0.2588979086828932, 0.2549685098506908, 0.09288012932941593, -0.49591654539108276, 0.09328565746545792, -0.3929098844528198, -0.24773868918418884, -0.2522149384021759, -0.9354214072227478, 0.02207636833190918, -0.15110549330711365, 0.11135530471801758, 0.13188359258226687, -0.12204926824492313, 0.9832874348179638,0.029266960567101118,-0.264251708984375,-0.2761383056640625,-0.8163604736328125
20220122-1222,2022-01-22 12:22:42Z,u01, 146,40,movements,el-ex, rt, d,292443.2435247917, -0.25234913585726576, 0.24651875371866191, 0.08022640861859767, -0.27171972393989563, 0.1701018065214157, -0.35039395093917847, -0.2421310395002365, -0.2440294474363327, -0.9390538930892944, 0.005909636616706848, 0.030207931995391846, 0.09115356206893921, 0.12688021971718552, -0.1198935551308787, 0.9843525748271399,0.024022549793675827,-0.225433349609375,-0.339691162109375,-0.784393310546875
20220122-1222,2022-01-22 12:22:42Z,u01, 147,40,movements,el-ex, rt, d,292443.2684697917, -0.2450338446031537, 0.24821265579611132, 0.07180107956032494, 0.26098424196243286, 0.2608542740345001, -0.35861197113990784, -0.23515453934669495, -0.24567177891731262, -0.9403976202011108, 0.02131780982017517, 0.10469572246074677, 0.08247226476669312, 0.12713367442249782, -0.11678274952149408, 0.9847789194076213,0.020231327221572098,-0.228607177734375,-0.3963165283203125,-0.8311767578125
20220122-1222,2022-01-22 12:22:42Z,u01, 148,40,movements,el-ex, rt, d,292443.2934147917, -0.2348486112720786, 0.259048227023749, 0.06427415459599038, 0.24478183686733246, 0.37430253624916077, -0.38098493218421936, -0.22493167221546173, -0.2561606466770172, -0.9400997161865234, 0.040696993470191956, -0.008762538433074951, 0.1364193558692932, 0.13193940389178388, -0.11199170652517693, 0.9847725137343988,0.016518835424282213,-0.2400665283203125,-0.231689453125,-0.847747802734375
20220122-1222,2022-01-22 12:22:42Z,u01, 149,40,movements,el-ex, rt, d,292443.3183597917, -0.22392513514288784, 0.2612254824959432, 0.05546945170759344, -0.1671346127986908, 0.3198811113834381, -0.35535866022109985, -0.21452495455741882, -0.2582646608352661, -0.9419545531272888, 0.07119907438755035, -0.06439781188964844, 0.0637807846069336, 0.13244840618936293, -0.10714536897502802, 0.9852990316779032,0.0127766612875405,-0.211944580078125,-0.146820068359375,-0.8649749755859375
20220122-1222,2022-01-22 12:22:43Z,u01, 150,40,movements,el-ex, rt, d,292443.34330479166, -0.213202050436519, 0.26027989649566025, 0.04572487099543273, 0.0017402907833456993, 0.36431676149368286, -0.3303779363632202, -0.20446373522281647, -0.2573510408401489, -0.9444389939308167, 0.008342444896697998, -0.039524078369140625, -0.023578524589538574, 0.1314142829391935, -0.10252209672478733, 0.985973324394628,0.008734331014305076,-0.1924591064453125,-0.2585296630859375,-0.805328369140625
20220122-1222,2022-01-22 12:22:43Z,u01, 151,40,movements,el-ex, rt, d,292443.3682497917, -0.20286216167996532, 0.26460301238466005, 0.040166064597863094, 0.2733142375946045, 0.32906630635261536, -0.21242153644561768, -0.1944616138935089, -0.26152610778808594, -0.945404052734375, 0.031619757413864136, 0.023076921701431274, -0.018539369106292725, 0.13322704299592134, -0.09771662507249244, 0.9862355509733957,0.00644913061417559,-0.1452484130859375,-0.3273773193359375,-0.895843505859375
20220122-1222,2022-01-22 12:22:43Z,u01, 152,40,movements,el-ex, rt, d,292443.39319537504, -0.19350215561507458, 0.27127065296841296, 0.03591625794759348, 0.09594126045703888, 0.30193227529525757, -0.22316887974739075, -0.18526479601860046, -0.26795583963394165, -0.945450484752655, 0.047966137528419495, -0.0190468430519104, -0.005919694900512695, 0.13628445802860534, -0.09328073916062234, 0.9862575093411907,0.0046488744588232475,-0.1962738037109375,-0.3101043701171875,-0.970855712890625
20220122-1222,2022-01-22 12:22:43Z,u01, 153,40,movements,el-ex, rt, d,292443.418140375, -0.18494071335781817, 0.26938702673971127, 0.029057740866427165, -0.329756498336792, 0.2724508047103882, -0.280690997838974, -0.17725618183612823, -0.2661406099796295, -0.9474964141845703, 0.052454471588134766, -0.042437970638275146, -0.05096244812011719, 0.13502815229364212, -0.08954998935748815, 0.9867849201158019,0.0019367289959498837,-0.1607513427734375,-0.2351837158203125,-0.9644012451171875
20220122-1222,2022-01-22 12:22:43Z,u01, 154,40,movements,el-ex, rt, d,292443.443085375, -0.17720822894309712, 0.2630803003624245, 0.020849729487696738, -0.10393986850976944, 0.1603807955980301, -0.24125726521015167, -0.17021696269512177, -0.26005610823631287, -0.9504719972610474, 0.07028709352016449, 0.06951949000358582, -0.09992772340774536, 0.13155400869282577, -0.08635705951729487, 0.9875395885205068,-0.0013115067783662226,-0.13922119140625,-0.2773895263671875,-0.9390411376953125
20220122-1222,2022-01-22 12:22:43Z,u01, 155,40,movements,el-ex, rt, d,292443.468030375, -0.1726566176669733, 0.26963062269452337, 0.0157547510202234, 0.5320034623146057, 0.10020595043897629, -0.2424156665802002, -0.16559281945228577, -0.26637542247772217, -0.9495384097099304, 0.02240428328514099, 0.1098659336566925, -0.08927994966506958, 0.13457563604599107, -0.08438128717210316, 0.9872966949945673,-0.0038116390216725443,-0.122161865234375,-0.2997894287109375,-0.9990081787109375
20220122-1222,2022-01-22 12:22:43Z,u01, 156,40,movements,el-ex, rt, d,292443.49297537503, -0.16985340069783325, 0.2826502637901239, 0.012309670482959091, 0.1990664154291153, 0.0878598615527153, -0.18561570346355438, -0.16233037412166595, -0.27890172600746155, -0.9465002417564392, 0.005134269595146179, -0.056852787733078, 0.0033240318298339844, 0.14086171078168927, -0.08311355955013057, 0.9865169370697106,-0.0058762885878942545,-0.0976715087890625,-0.1997528076171875,-1.0457611083984375
20220122-1222,2022-01-22 12:22:43Z,u01, 157,40,movements,el-ex, rt, d,292443.51792037504, -0.1670532607720014, 0.27779073394526566, 0.007437758859901512, -0.5221667885780334, 0.007013149559497833, -0.17643851041793823, -0.159902885556221, -0.27423176169395447, -0.9482763409614563, 0.06313158571720123, -0.10153129696846008, -0.041103482246398926, 0.13827284715945473, -0.08211242436415385, 0.9869529245150802,-0.007880457487359091,-0.14996337890625,-0.164398193359375,-1.0320281982421875
20220122-1222,2022-01-22 12:22:43Z,u01, 158,40,movements,el-ex, rt, d,292443.542865375, -0.16502339993762155, 0.2692954717301306, 0.00023866503809397442, -0.054193347692489624, 0.014329586178064346, -0.19873030483722687, -0.15835469961166382, -0.26605236530303955, -0.9508627653121948, 0.018187403678894043, 0.0478515625, -0.054523587226867676, 0.1337942637943268, -0.08165613897068832, 0.9875787421949602,-0.01094605516590251,-0.162261962890625,-0.320892333984375,-0.9512786865234375
20220122-1222,2022-01-22 12:22:43Z,u01, 159,40,movements,el-ex, rt, d,292443.567811375, -0.16448190791330977, 0.2792960886682381, -0.0012049565282686709, 0.7196714282035828, -0.002474294975399971, -0.05708196014165878, -0.15739624202251434, -0.2756790816783905, -0.9482760429382324, -0.005048900842666626, 0.07716211676597595, -0.0811275839805603, 0.13867509154251134, -0.08143212907219466, 0.9869110388738539,-0.01202918947743331,-0.0950927734375,-0.36480712890625,-0.991546630859375
20220122-1222,2022-01-22 12:22:43Z,u01, 160,40,movements,el-ex, rt, d,292443.59275637503, -0.16353663306510838, 0.29239296161719364, -0.00029653176498974386, 0.07942130416631699, 0.06003342568874359, -0.03338342159986496, -0.1558985561132431, -0.28824445605278015, -0.9447808265686035, 0.03553716838359833, -0.07155787944793701, 0.07223755121231079, 0.14517754495675964, -0.08082745071825113, 0.98602498058733,-0.012044627777742768,-0.1330718994140625,-0.22686767578125,-1.0055694580078125
20220122-1222,2022-01-22 12:22:43Z,u01, 161,40,movements,el-ex, rt, d,292443.61770137504, -0.16387216176619634, 0.2847658485037427, -0.0024968822715674467, -0.5807459354400635, -0.10274829715490341, -0.08610548824071884, -0.15656965970993042, -0.2809327244758606, -0.946869969367981, 0.054854512214660645, -0.14732056856155396, -0.007826626300811768, 0.1413250058464965, -0.08119271951082792, 0.9865444638803023,-0.012845567552856839,-0.1616668701171875,-0.205535888671875,-1.0238037109375
20220122-1222,2022-01-22 12:22:43Z,u01, 162,40,movements,el-ex, rt, d,292443.642646375, -0.16440683721602115, 0.27239511396435256, -0.007838466376028683, -0.32138681411743164, -0.06934899836778641, -0.08256342262029648, -0.15763266384601593, -0.26903900504112244, -0.9501420855522156, 0.01943376660346985, 0.05871176719665527, -0.0073316097259521484, 0.13499851658339743, -0.08188019690685118, 0.9873426151040294,-0.015018489502366339,-0.1275482177734375,-0.339599609375,-0.869781494140625
20220122-1222,2022-01-22 12:22:43Z,u01, 163,40,movements,el-ex, rt, d,292443.667591375, -0.16711892836988998, 0.27350500253085913, -0.008006914702245382, 0.36740607023239136, -0.1459461748600006, 0.013389874249696732, -0.1601591855287552, -0.27010780572891235, -0.9494160413742065, 0.016299262642860413, 0.0742000937461853, -0.06347757577896118, 0.13551888764827544, -0.08322625261769404, 0.9871540929199262,-0.015330268402176238,-0.1053314208984375,-0.4151153564453125,-0.95703125
20220122-1222,2022-01-22 12:22:43Z,u01, 164,40,movements,el-ex, rt, d,292443.692536375, -0.16985915558529696, 0.28032070325112185, -0.0069785977206330225, -0.0035674553364515305, -0.058903083205223083, -0.01212181057780981, -0.16244521737098694, -0.2766638398170471, -0.9471371173858643, 0.02052314579486847, -0.04987436532974243, 0.05213284492492676, 0.138904427940434, -0.08448085480687899, 0.9865772510736481,-0.015293113438430192,-0.136474609375,-0.222137451171875,-0.956207275390625
20220122-1222,2022-01-22 12:22:43Z,u01, 165,40,movements,el-ex, rt, d,292443.71748137503, -0.17185849049979932, 0.27192306298958396, -0.008646650090942433, -0.560303270816803, -0.1422307938337326, -0.03161568194627762, -0.16473005712032318, -0.26858434081077576, -0.9490661025047302, 0.034206315875053406, -0.0771189033985138, 0.0277252197265625, 0.13467404104130282, -0.0856145453361219, 0.9870563831850753,-0.015900281602928487,-0.144866943359375,-0.2022552490234375,-1.0088348388671875
20220122-1222,2022-01-22 12:22:43Z,u01, 166,40,movements,el-ex, rt, d,292443.74242637504, -0.17422888509722537, 0.26127672864076695, -0.012569354499561676, -0.1893201470375061, -0.12933675944805145, -0.0835331454873085, -0.1674654632806778, -0.2583141624927521, -0.9514352679252625, 0.022659480571746826, 0.11137190461158752, -0.014888525009155273, 0.12922841542588734, -0.08707680198255523, 0.9876284783451863,-0.017541027881903704,-0.144195556640625,-0.316558837890625,-0.901214599609375
20220122-1222,2022-01-22 12:22:43Z,u01, 167,40,movements,el-ex, rt, d,292443.767372375, -0.17802726756967935, 0.26595021411282926, -0.012606158934605642, 0.5952910780906677, -0.19151745736598969, 0.006561195477843285, -0.17086251080036163, -0.26282620429992676, -0.9495937824249268, 0.04528261721134186, 0.1488276720046997, 0.0014280080795288086, 0.13150065998116853, -0.08894195930011586, 0.9871538123955875,-0.01800859035225382,-0.1327667236328125,-0.33380126953125,-0.92889404296875
20220122-1222,2022-01-22 12:22:43Z,u01, 168,40,movements,el-ex, rt, d,292443.792317375, -0.1840952947829367, 0.2836418640534844, -0.009617902312517919, 0.6420702338218689, -0.17439459264278412, -0.043701376765966415, -0.17574270069599152, -0.27985385060310364, -0.943820059299469, 0.04448653757572174, 0.025306612253189087, 0.06906425952911377, 0.1403084041040116, -0.09167067926986602, 0.9856955242888285,-0.017732548411018532,-0.14532470703125,-0.16094970703125,-0.966522216796875
20220122-1222,2022-01-22 12:22:43Z,u01, 169,40,movements,el-ex, rt, d,292443.817262375, -0.18727594045719304, 0.2962007449523265, -0.009061267348771196, 0.41423118114471436, -0.07975763082504272, -0.10639065504074097, -0.17807532846927643, -0.2918885052204132, -0.939728856086731, 0.05830901861190796, -0.0023773610591888428, 0.07684439420700073, 0.14649262817093184, -0.09314229865160763, 0.9846477950855653,-0.01825824033402848,-0.1239776611328125,-0.1232452392578125,-0.9442138671875
20220122-1222,2022-01-22 12:22:43Z,u01, 170,40,movements,el-ex, rt, d,292443.84220737504, -0.1876209960908163, 0.3087108265784103, -0.010989592449112814, 0.5704538822174072, 0.020259981974959373, -0.22617465257644653, -0.17770452797412872, -0.30383065342903137, -0.9360064268112183, 0.008362427353858948, 0.03310909867286682, 0.029664933681488037, 0.15255628745285715, -0.09339893396215064, 0.9836722343910632,-0.01980692767376202,-0.1299896240234375,-0.24530029296875,-0.88372802734375
20220122-1222,2022-01-22 12:22:43Z,u01, 171,40,movements,el-ex, rt, d,292443.867152375, -0.18431545498780227, 0.3263004186355298, -0.013736910057253453, 0.6684045195579529, 0.1576872169971466, -0.19659291207790375, -0.1736031323671341, -0.3205408453941345, -0.9311903715133667, -0.05353926122188568, 0.0015862882137298584, 0.049873292446136475, 0.1611106116117753, -0.09191399257619115, 0.9824075303885283,-0.021695837200496816,-0.1180877685546875,-0.2913818359375,-0.870147705078125
20220122-1222,2022-01-22 12:22:43Z,u01, 172,40,movements,el-ex, rt, d,292443.892097375, -0.17991355304695056, 0.33927945759056294, -0.013808580600197271, 0.3640082776546478, 0.15284059941768646, -0.005037535913288593, -0.16874374449253082, -0.332807719707489, -0.9277740120887756, -0.05479757487773895, -0.13664433360099792, 0.07375490665435791, 0.16752927145162488, -0.08970476726149237, 0.9815322344087705,-0.021943932066610022,-0.1605224609375,-0.266265869140625,-0.90771484375
20220122-1222,2022-01-22 12:22:43Z,u01, 173,40,movements,el-ex, rt, d,292443.917042375, -0.17734544954748901, 0.3425552379311947, -0.012656274579319955, -0.09736565500497818, 0.10441966354846954, 0.023714350536465645, -0.16616734862327576, -0.33589497208595276, -0.9271262288093567, -0.03888033330440521, -0.08367606997489929, 0.03138953447341919, 0.1692161756318488, -0.08833337322328852, 0.9813813071073877,-0.02130440570994927,-0.230987548828125,-0.3285675048828125,-0.87066650390625
20220122-1222,2022-01-22 12:22:43Z,u01, 174,40,movements,el-ex, rt, d,292443.94198837504, -0.17433260845006907, 0.3407123905251178, -0.01255497765288041, 0.04648426175117493, 0.14210300147533417, -0.013054716400802135, -0.16348040103912354, -0.33415862917900085, -0.9282306432723999, -0.02417224645614624, 0.027533113956451416, -0.0026622414588928223, 0.16834784990293755, -0.08685428959446496, 0.9816708064895774,-0.020921694252602888,-0.22625732421875,-0.4615325927734375,-0.8485260009765625
20220122-1222,2022-01-22 12:22:43Z,u01, 175,40,movements,el-ex, rt, d,292443.966933375, -0.1715382848178353, 0.3446024391331717, -0.012126287030209622, 0.14035499095916748, 0.08130495250225067, 0.001561577431857586, -0.16066287457942963, -0.3378225266933441, -0.9273960590362549, -0.003735363483428955, 0.06810805201530457, 0.013348877429962158, 0.1703048570554046, -0.08542972127536659, 0.9814643339491782,-0.02063818955015169,-0.2025909423828125,-0.4102935791015625,-0.9012298583984375
20220122-1222,2022-01-22 12:22:43Z,u01, 176,40,movements,el-ex, rt, d,292443.991878375, -0.1701025405579757, 0.342831159904147, -0.011356621513552247, -0.312547892332077, 0.05909285694360733, 0.05479896813631058, -0.15943226218223572, -0.33615484833717346, -0.9282140135765076, -5.266070365905762e-05, -0.06386968493461609, 0.06934261322021484, 0.1694827304552209, -0.08466751526107685, 0.9816845162689598,-0.02006493707187234,-0.190460205078125,-0.3156890869140625,-0.9309234619140625
20220122-1222,2022-01-22 12:22:43Z,u01, 177,40,movements,el-ex, rt, d,292444.016823375, -0.16863894508082009, 0.33148684463641814, -0.013384254446465413, -0.5384122133255005, 0.01648561656475067, -0.05196409672498703, -0.15870341658592224, -0.32544928789138794, -0.932145893573761, -0.009250134229660034, -0.08055669069290161, 0.04734981060028076, 0.16383988649365647, -0.08416375630233269, 0.9826769184054355,-0.020471627499187302,-0.162139892578125,-0.27398681640625,-0.9103240966796875
20220122-1222,2022-01-22 12:22:43Z,u01, 178,40,movements,el-ex, rt, d,292444.041768375, -0.16703655963424072, 0.32076558999988863, -0.01606973529024146, -0.28549396991729736, 0.03435808792710304, -0.004633867181837559, -0.15778063237667084, -0.31529319286346436, -0.9357860088348389, -0.016184881329536438, 0.014969587326049805, 0.0034130215644836426, 0.15847264060967936, -0.08362659551935711, 0.9835866255082103,-0.02122562716600384,-0.1592864990234375,-0.3896026611328125,-0.858001708984375
20220122-1222,2022-01-22 12:22:43Z,u01, 179,40,movements,el-ex, rt, d,292444.06671337504, -0.1665986188408193, 0.31828376006784764, -0.01622610586265261, 0.023751182481646538, -0.009393187239766121, 0.044400185346603394, -0.15750007331371307, -0.3129369914531708, -0.9366238117218018, -0.006882920861244202, 0.03537946939468384, 0.012368500232696533, 0.15724982113888142, -0.08343013580588376, 0.9838006978554845,-0.021167500385205228,-0.168243408203125,-0.3943634033203125,-0.8924713134765625
20220122-1222,2022-01-22 12:22:43Z,u01, 180,40,movements,el-ex, rt, d,292444.091658375, -0.16751090265805277, 0.3223354824842105, -0.014467285085862057, 0.09197431802749634, 0.013127833604812622, 0.040207840502262115, -0.15814177691936493, -0.3167826235294342, -0.9352218508720398, -0.007049933075904846, 0.0020547211170196533, 0.05927586555480957, 0.15930690564282576, -0.0837279505287761, 0.9834577962218622,-0.020539059421947982,-0.1728668212890625,-0.308837890625,-0.932159423828125
20220122-1222,2022-01-22 12:22:43Z,u01, 181,40,movements,el-ex, rt, d,292444.116603375, -0.16685260151449258, 0.32536100731319956, -0.013540261184108941, 0.09316437691450119, 0.0688372403383255, 0.007794840261340141, -0.15736620128154755, -0.31965088844299316, -0.9343763589859009, -0.021237999200820923, 0.0020695924758911133, 0.050099074840545654, 0.16084018644303394, -0.0833201392004808, 0.9832508030343896,-0.020153524445589308,-0.162933349609375,-0.2803802490234375,-0.9198760986328125
20220122-1222,2022-01-22 12:22:43Z,u01, 182,40,movements,el-ex, rt, d,292444.141549375, -0.1651034139541818, 0.3249980326251228, -0.012246186775905474, -0.037868138402700424, 0.11651380360126495, 0.06634350121021271, -0.15575061738491058, -0.3193069100379944, -0.9347646236419678, -0.017924979329109192, -0.032866060733795166, 0.05862021446228027, 0.16073257284569964, -0.08235739176960569, 0.9833654346329057,-0.019362006806383725,-0.1635589599609375,-0.30999755859375,-0.8787078857421875
20220122-1222,2022-01-22 12:22:43Z,u01, 183,40,movements,el-ex, rt, d,292444.16649437504, -0.1620935417620213, 0.3204701350015443, -0.011292519034953935, -0.30058327317237854, 0.15607960522174835, 0.06037535518407822, -0.15316814184188843, -0.31501278281211853, -0.9366464018821716, -0.007384896278381348, -0.04454541206359863, 0.056122779846191406, 0.15857275893900227, -0.0808176114449419, 0.9838607385274589,-0.0184722805900608,-0.17828369140625,-0.31536865234375,-0.8849029541015625
20220122-1222,2022-01-22 12:22:43Z,u01, 184,40,movements,el-ex, rt, d,292444.191439375, -0.15853964836001788, 0.3122110730900643, -0.010994341623769669, -0.37216922640800476, 0.15938091278076172, 0.06842270493507385, -0.1502440869808197, -0.3071635663509369, -0.9397218823432922, -0.002954229712486267, -0.014949589967727661, 0.02428615093231201, 0.1545517280826291, -0.07907473117399465, 0.9846556372006164,-0.01772442050803049,-0.1742095947265625,-0.348724365234375,-0.8752593994140625
20220122-1222,2022-01-22 12:22:43Z,u01, 185,40,movements,el-ex, rt, d,292444.216384375, -0.15451463387019498, 0.30490222747203916, -0.010347362814037796, -0.17412853240966797, 0.2048044502735138, 0.05031546950340271, -0.14680206775665283, -0.3001999258995056, -0.9425121545791626, -0.012041985988616943, -0.017594993114471436, 0.05219238996505737, 0.15101157679185281, -0.07706763944604025, 0.9853798099520593,-0.01681896633560466,-0.1587982177734375,-0.357666015625,-0.8804931640625
20220122-1222,2022-01-22 12:22:43Z,u01, 186,40,movements,el-ex, rt, d,292444.241329375, -0.15002365696736783, 0.305192446190142, -0.008500058323495397, 0.013543320819735527, 0.18179041147232056, 0.1536383181810379, -0.14255477488040924, -0.30047672986984253, -0.9430757761001587, 0.03086039423942566, 0.050232499837875366, -0.003350555896759033, 0.15126107899809316, -0.07471420233570031, 0.9855430593254779,-0.015580175396919568,-0.151824951171875,-0.325531005859375,-0.9152679443359375
20220122-1222,2022-01-22 12:22:43Z,u01, 187,40,movements,el-ex, rt, d,292444.266274375, -0.1472964000051478, 0.3045940141206797, -0.004519657614031506, -0.1897592544555664, 0.17736171185970306, 0.10823529958724976, -0.1400086134672165, -0.2999058961868286, -0.9436387419700623, 0.025933831930160522, -0.0058498382568359375, 0.008473396301269531, 0.1511329375859633, -0.07307166022526686, 0.9857181486729746,-0.013390575708574881,-0.15869140625,-0.3108062744140625,-0.8898162841796875
20220122-1222,2022-01-22 12:22:43Z,u01, 188,40,movements,el-ex, rt, d,292444.29121937504, -0.1428287456083565, 0.293393991598409, -0.004055140254353405, -0.7013986706733704, 0.17335286736488342, 0.0860825851559639, -0.1362609714269638, -0.28920283913612366, -0.9475202560424805, 0.023116976022720337, -0.056988656520843506, 0.015833914279937744, 0.14565541584861413, -0.07088277158566642, 0.9867145048521694,-0.012430527631510736,-0.1158599853515625,-0.249237060546875,-0.9386444091796875
20220122-1222,2022-01-22 12:22:43Z,u01, 189,40,movements,el-ex, rt, d,292444.316165375, -0.1394781488512818, 0.2750193643241, -0.004373996017438824, -0.6268547773361206, 0.09835244715213776, 0.09102281183004379, -0.13380172848701477, -0.27156558632850647, -0.9530735611915588, 0.024625033140182495, -0.005549401044845581, -0.0016535520553588867, 0.13659223377976917, -0.06932367238483968, 0.9881294167948197,-0.011712918226717182,-0.1157989501953125,-0.31317138671875,-0.9263153076171875
20220122-1222,2022-01-22 12:22:44Z,u01, 190,40,movements,el-ex, rt, d,292444.341110375, -0.13733848865162493, 0.2643183484578641, -0.002915728640177181, -0.2279331088066101, 0.0881621316075325, 0.15017561614513397, -0.1321524828672409, -0.2612513601779938, -0.9561817049980164, 0.027904361486434937, 0.06528261303901672, 0.022099733352661133, 0.13136492268907085, -0.06820852432854871, 0.9889292252858094,-0.010483499869246779,-0.1135711669921875,-0.35009765625,-0.9264678955078125
20220122-1222,2022-01-22 12:22:44Z,u01, 191,40,movements,el-ex, rt, d,292444.366055375, -0.13621162885719731, 0.259371160679532, 0.0006745321585493748, -0.2588950991630554, 0.11065205931663513, 0.16162274777889252, -0.1312488168478012, -0.25647279620170593, -0.9575988054275513, 0.010963723063468933, 0.01677238941192627, 0.014331042766571045, 0.12904530898929129, -0.06743818598259012, 0.9893067102364904,-0.008467138115396004,-0.1091766357421875,-0.2664337158203125,-0.9550628662109375
20220122-1222,2022-01-22 12:22:44Z,u01, 192,40,movements,el-ex, rt, d,292444.39100037504, -0.13360653322385863, 0.2475100471265295, 0.00331298528791993, -0.6158288717269897, 0.12432106584310532, 0.16525429487228394, -0.1291498988866806, -0.24499064683914185, -0.9608849287033081, 0.0014795511960983276, -0.034291088581085205, 0.007027566432952881, 0.1232736010997959, -0.0660389544258381, 0.9901509795474956,-0.006599852985218778,-0.1036376953125,-0.1962432861328125,-0.9284515380859375
20220122-1222,2022-01-22 12:22:44Z,u01, 193,40,movements,el-ex, rt, d,292444.415946125, -0.13110854385187753, 0.23294609946623918, 0.005503334079802775, -0.4295579493045807, 0.13761869072914124, 0.15581467747688293, -0.12720221281051636, -0.23084504902362823, -0.9646399021148682, 0.003880620002746582, -0.004399821162223816, -0.0068718791007995605, 0.11613886642103864, -0.06474416592596502, 0.9911085335056261,-0.004885420138720911,-0.122772216796875,-0.24700927734375,-0.9403533935546875
20220122-1222,2022-01-22 12:22:44Z,u01, 194,40,movements,el-ex, rt, d,292444.440891125, -0.12737625840548533, 0.2258309724509882, 0.00809700356493616, -0.1426125168800354, 0.1952507048845291, 0.1248403787612915, -0.12380654364824295, -0.22391630709171295, -0.9667127132415771, 0.00019502639770507812, 0.051964908838272095, -0.0024797916412353516, 0.1127023500236735, -0.06278401366072285, 0.9916383240838887,-0.003156640034814924,-0.1284332275390625,-0.28411865234375,-0.9525604248046875
20220122-1222,2022-01-22 12:22:44Z,u01, 195,40,movements,el-ex, rt, d,292444.465836125, -0.12325607591957695, 0.22264268677238314, 0.011278723577010841, -0.13999716937541962, 0.19471727311611176, 0.16754202544689178, -0.11990963667631149, -0.22080785036087036, -0.9679181575775146, 0.0025542303919792175, 0.018262580037117004, 0.004707157611846924, 0.11122406175628897, -0.060581537237584915, 0.9919464326349575,-0.0012481258066455378,-0.122589111328125,-0.2267913818359375,-0.976287841796875
20220122-1222,2022-01-22 12:22:44Z,u01, 196,40,movements,el-ex, rt, d,292444.49078112503, -0.11911312488643397, 0.21564029922701852, 0.014409704164530615, -0.39714890718460083, 0.18656060099601746, 0.11914686113595963, -0.11607947200536728, -0.21397294104099274, -0.9699181318283081, 0.007925115525722504, -0.030686601996421814, 0.0029076337814331055, 0.10784412949115268, -0.05840024108083712, 0.9924508066659106,0.0007452440272397512,-0.1243896484375,-0.1714630126953125,-0.97296142578125
20220122-1222,2022-01-22 12:22:44Z,u01, 197,40,movements,el-ex, rt, d,292444.515727125, -0.11534001290800212, 0.20415572173145796, 0.016320024580668804, -0.4321705400943756, 0.14533567428588867, 0.15350723266601562, -0.11269443482160568, -0.20274049043655396, -0.9727262258529663, 0.01294766366481781, -0.013385117053985596, 3.9458274841308594e-05, 0.10219576475167952, -0.05650598819204978, 0.9931556070330089,0.002230790276656125,-0.1161041259765625,-0.2112884521484375,-0.9634552001953125
20220122-1222,2022-01-22 12:22:44Z,u01, 198,40,movements,el-ex, rt, d,292444.540672125, -0.11231262696347738, 0.19601309409049664, 0.019159580162044894, -0.16091972589492798, 0.16298310458660126, 0.13348744809627533, -0.10993048548698425, -0.19476032257080078, -0.9746710658073425, -0.0017944350838661194, 0.035427942872047424, 0.0027625560760498047, 0.09822608966777788, -0.054919009719652745, 0.9936394536207078,0.004026904235716652,-0.1104278564453125,-0.248260498046875,-0.9662628173828125
20220122-1222,2022-01-22 12:22:44Z,u01, 199,40,movements,el-ex, rt, d,292444.565617125, -0.10877541066104306, 0.19437947606172107, 0.022857098925362182, 0.0685429498553276, 0.15262088179588318, 0.16894811391830444, -0.10651657730340958, -0.19315773248672485, -0.9753687977790833, 0.015680938959121704, 0.0567898154258728, 0.00017964839935302734, 0.09750530688725047, -0.052993492831333006, 0.9938045791907019,0.006082886713055062,-0.1002655029296875,-0.212493896484375,-0.97015380859375
20220122-1222,2022-01-22 12:22:44Z,u01, 200,40,movements,el-ex, rt, d,292444.590562125, -0.10649831523863199, 0.1999474694850654, 0.027629343557973616, 0.4281288683414459, 0.11199869215488434, 0.15529094636440277, -0.10417935997247696, -0.1986178457736969, -0.9745243191719055, 0.00896444171667099, 0.028161808848381042, 0.025427639484405518, 0.10038788035478238, -0.051576376788795, 0.9935750600700589,0.008414136884805273,-0.112945556640625,-0.164886474609375,-0.9709320068359375
20220122-1222,2022-01-22 12:22:44Z,u01, 201,40,movements,el-ex, rt, d,292444.61550712504, -0.10369430263755379, 0.21135611637257212, 0.0321203906878884, 0.3734285831451416, 0.21267256140708923, 0.1174788624048233, -0.10120522975921631, -0.20978602766990662, -0.972495436668396, -0.01616545021533966, 0.03250931203365326, 0.037925124168395996, 0.10615376794983251, -0.04983646533742139, 0.993044695742379,0.01048269467489573,-0.0892791748046875,-0.1380615234375,-0.974456787109375
20220122-1222,2022-01-22 12:22:44Z,u01, 202,40,movements,el-ex, rt, d,292444.640452125, -0.09802001840427842, 0.21320235860971742, 0.03610913423392295, -0.2275821417570114, 0.26705458760261536, 0.18980152904987335, -0.09564734995365143, -0.21159082651138306, -0.9726669192314148, -0.008051447570323944, -0.061755210161209106, 0.06208348274230957, 0.10713373879495833, -0.04678576954604426, 0.9930618618736895,0.012717851180145179,-0.0930023193359375,-0.167572021484375,-0.94842529296875
20220122-1222,2022-01-22 12:22:44Z,u01, 203,40,movements,el-ex, rt, d,292444.665397125, -0.09428477325992544, 0.2005876727880582, 0.0393905139658954, -0.6488951444625854, 0.08040347695350647, 0.12463903427124023, -0.09225749969482422, -0.19924525916576385, -0.9755972027778625, 0.0056790634989738464, -0.064686119556427, 0.02473050355911255, 0.10091854422845904, -0.04490933035129123, 0.9937696746288178,0.014855741550590877,-0.1182708740234375,-0.1822967529296875,-0.9295806884765625
20220122-1222,2022-01-22 12:22:44Z,u01, 204,40,movements,el-ex, rt, d,292444.690343125, -0.09395458875122863, 0.18816587701679932, 0.04131648168670962, -0.19125038385391235, -0.007583901286125183, 0.14512726664543152, -0.09216046333312988, -0.1870574653148651, -0.9780163168907166, 0.01565282791852951, 0.06774888932704926, -0.04024839401245117, 0.09478629128222621, -0.04480391711019573, 0.9943580295657379,0.016132047863879298,-0.10601806640625,-0.267730712890625,-0.90618896484375
20220122-1222,2022-01-22 12:22:44Z,u01, 205,40,movements,el-ex, rt, d,292444.71528812504, -0.09462602613912363, 0.19320511146548705, 0.04536443115530888, 0.5476359724998474, 0.059254780411720276, 0.10459154844284058, -0.09272687882184982, -0.19200535118579865, -0.9770033955574036, -0.018235109746456146, 0.1142922192811966, -0.02900850772857666, 0.0973873293344054, -0.04487762666553646, 0.9940714726511447,0.017988687520242252,-0.0847625732421875,-0.2522430419921875,-0.95489501953125
20220122-1222,2022-01-22 12:22:44Z,u01, 206,40,movements,el-ex, rt, d,292444.740233125, -0.09126974798116824, 0.2087054975054343, 0.04904818127341902, 0.6348307728767395, 0.22099128365516663, 0.08538570255041122, -0.08916527777910233, -0.20719365775585175, -0.9742280840873718, -0.02043866366147995, 0.03418941795825958, -0.0168912410736084, 0.1051362825502854, -0.04280563094458224, 0.9933426537358999,0.019612440103188706,-0.0743865966796875,-0.1301116943359375,-1.01483154296875
20220122-1222,2022-01-22 12:22:44Z,u01, 207,40,movements,el-ex, rt, d,292444.765178125, -0.08800671235833328, 0.22215744210985724, 0.05225250749895456, 0.4928353726863861, 0.07627251744270325, 0.056918974965810776, -0.08573312312364578, -0.22033455967903137, -0.9716494083404541, 0.00615847110748291, 0.0002416670322418213, -0.0243527889251709, 0.11184739611414511, -0.040810160682877565, 0.9926636642046143,0.021062601436389404,-0.1163787841796875,-0.079986572265625,-1.0008697509765625
20220122-1222,2022-01-22 12:22:44Z,u01, 208,40,movements,el-ex, rt, d,292444.790123125, -0.08782687235806695, 0.23631807331263585, 0.054377820451292115, 0.6984701156616211, 0.008241532370448112, 0.019909026101231575, -0.08527613431215286, -0.23412463068962097, -0.96845942735672, -0.010671190917491913, 0.02723062038421631, -0.027695298194885254, 0.11891221370198486, -0.040375455802420177, 0.9918440520054461,0.021796851918648566,-0.11456298828125,-0.1645660400390625,-0.988433837890625
20220122-1222,2022-01-22 12:22:44Z,u01, 209,40,movements,el-ex, rt, d,292444.815068125, -0.0872057913940415, 0.2570935542596007, 0.05665835399214676, 0.9231473803520203, 0.09883388131856918, 0.002171974629163742, -0.08423274755477905, -0.2542707026004791, -0.9634579420089722, -0.01580394059419632, 0.054533034563064575, 0.018908441066741943, 0.12924430289721428, -0.03958442426117113, 0.9905673711518171,0.022479406615224212,-0.07843017578125,-0.2230682373046875,-0.9976959228515625
20220122-1222,2022-01-22 12:22:44Z,u01, 210,40,movements,el-ex, rt, d,292444.84001312504, -0.08265903019967227, 0.27269889467493114, 0.05749110950839833, 0.1619904786348343, 0.2710934579372406, -0.02754737250506878, -0.07951395213603973, -0.26933157444000244, -0.9597593545913696, -0.013000153005123138, -0.01924276351928711, 0.0727354884147644, 0.13693168627634425, -0.0370139267668073, 0.9896253101864276,0.022836631064843897,-0.093841552734375,-0.2101898193359375,-1.0006866455078125
20220122-1222,2022-01-22 12:22:44Z,u01, 211,40,movements,el-ex, rt, d,292444.864958125, -0.07748364440640458, 0.26278039447874246, 0.05719846735003148, -0.9209126234054565, 0.07211858034133911, 0.05140469968318939, -0.07474889606237411, -0.25976648926734924, -0.9627740979194641, 0.007777996361255646, -0.1308586299419403, 0.05096995830535889, 0.13195865404466847, -0.03463905163884712, 0.9903768088676481,0.023255274271136616,-0.0989532470703125,-0.201568603515625,-0.939056396484375
20220122-1222,2022-01-22 12:22:44Z,u01, 212,40,movements,el-ex, rt, d,292444.889904125, -0.07883352481525766, 0.23344736972930952, 0.05634861208822272, -1.2031816244125366, -0.15458174049854279, 0.06769012659788132, -0.07661572843790054, -0.23133274912834167, -0.9698531627655029, 0.011506401002407074, -0.045873790979385376, -0.008128345012664795, 0.11742472660933206, -0.03584471830100691, 0.9921594903104515,0.023369740691901588,-0.0949859619140625,-0.2724151611328125,-0.8881988525390625
20220122-1222,2022-01-22 12:22:44Z,u01, 213,40,movements,el-ex, rt, d,292444.914849125, -0.08143603436960835, 0.21142492981970978, 0.05545903305940894, -0.5270243287086487, -0.031225981190800667, 0.0020397482439875603, -0.07953470945358276, -0.20985330641269684, -0.974492609500885, -0.01833523064851761, 0.05096343159675598, -0.0011848807334899902, 0.10651002209336742, -0.03754086403935401, 0.9933305721840329,0.023254782021357133,-0.064239501953125,-0.3931121826171875,-0.917205810546875
20220122-1222,2022-01-22 12:22:44Z,u01, 214,40,movements,el-ex, rt, d,292444.93979412504, -0.08056095645249667, 0.20591820066013658, 0.055274456024010835, 0.0006385752931237221, 0.07220000773668289, 0.04682133346796036, -0.07877372950315475, -0.2044660449028015, -0.9756988883018494, 0.0001756325364112854, 0.07394224405288696, 0.01636362075805664, 0.10376160545084849, -0.037203221405489095, 0.9936324247518137,0.02332785666355088,-0.0624847412109375,-0.2908782958984375,-0.973968505859375
20220122-1222,2022-01-22 12:22:44Z,u01, 215,40,movements,el-ex, rt, d,292444.964739125, -0.07824660893641926, 0.2074925142147294, 0.056987060432576515, 0.05301949009299278, 0.14400361478328705, 0.05594852566719055, -0.07649015635251999, -0.20600685477256775, -0.975556492805481, -0.0022452697157859802, 0.0023781955242156982, 0.018296360969543457, 0.104547327435356, -0.0359390866314307, 0.9935741047325403,0.024265865178182782,-0.097991943359375,-0.1458740234375,-0.9736175537109375
20220122-1222,2022-01-22 12:22:44Z,u01, 216,40,movements,el-ex, rt, d,292444.989684125, -0.0748223121432082, 0.20627786190274985, 0.05740909978238775, -0.16252276301383972, 0.11991460621356964, 0.00578182190656662, -0.07316777110099792, -0.20481809973716736, -0.9760614633560181, 0.017488375306129456, -0.029267102479934692, 0.04974621534347534, 0.10390951320193205, -0.03423550618104687, 0.9936909542736642,0.02467888985222705,-0.078094482421875,-0.1216583251953125,-0.95709228515625
20220122-1222,2022-01-22 12:22:44Z,u01, 217,40,movements,el-ex, rt, d,292445.014629125, -0.07323745610584864, 0.2023721094867163, 0.05693020397055326, 0.012884387746453285, -0.010167966596782207, -0.02077542059123516, -0.07167875021696091, -0.2009935975074768, -0.9769666194915771, 0.017159029841423035, -0.0023909062147140503, 0.04637885093688965, 0.10194151029809255, -0.03353548391751532, 0.9939206441551537,0.02460003666432288,-0.0779571533203125,-0.2110443115234375,-0.9541168212890625
20220122-1222,2022-01-22 12:22:44Z,u01, 218,40,movements,el-ex, rt, d,292445.039574125, -0.07489184626720154, 0.215738271773834, 0.058247230894664846, 1.0463937520980835, -0.023877855390310287, 0.04539380967617035, -0.07308738678693771, -0.21406865119934082, -0.974080502986908, -0.039797209203243256, 0.13531792163848877, 0.012898921966552734, 0.10862278141959521, -0.03407098408150832, 0.9931869557044808,0.024901174026717883,-0.0589141845703125,-0.2353363037109375,-0.9279022216796875
20220122-1222,2022-01-22 12:22:44Z,u01, 219,40,movements,el-ex, rt, d,292445.06452012504, -0.07036762467925475, 0.24971872332888637, 0.06073534305269984, 1.6032822132110596, 0.48233067989349365, -0.07583467662334442, -0.06812870502471924, -0.24713142216205597, -0.9665839672088623, -0.09227175265550613, 0.1395110785961151, 0.01632767915725708, 0.1254604877087002, -0.03110769663107959, 0.9912769329392588,0.02572929024945984,-0.055999755859375,-0.19635009765625,-0.9298095703125
20220122-1222,2022-01-22 12:22:44Z,u01, 220,40,movements,el-ex, rt, d,292445.089465125, -0.05461324618587955, 0.2840324805003355, 0.06190259346657287, 0.8367317318916321, 0.6499291062355042, 0.09297924488782883, -0.05239901319146156, -0.2802288234233856, -0.9585020542144775, 0.07139614224433899, 0.02806195616722107, 0.21311020851135254, 0.14225523418066904, -0.02263691822009831, 0.9892092623042936,0.026760754943544407,-0.1021270751953125,-0.0894927978515625,-0.95806884765625
20220122-1222,2022-01-22 12:22:44Z,u01, 221,40,movements,el-ex, rt, d,292445.114410125, -0.04525063922939042, 0.2869760281418584, 0.06832131687271288, -0.5149083733558655, 0.23714323341846466, 0.29422080516815186, -0.04338526725769043, -0.2830532193183899, -0.9581224322319031, 0.12761372327804565, -0.08233386278152466, 0.11316704750061035, 0.1436408814618715, -0.017495188551373532, 0.9890031466888269,0.030561200784163946,-0.1552276611328125,-0.1244354248046875,-0.9322509765625
20220122-1222,2022-01-22 12:22:44Z,u01, 222,40,movements,el-ex, rt, d,292445.139355125, -0.0445051828178411, 0.26944654337637075, 0.07118501922795463, -0.591766357421875, -0.042797550559043884, 0.02779051847755909, -0.042885202914476395, -0.26619797945022583, -0.9629639387130737, 0.10506470501422882, 0.06334754824638367, -0.07374870777130127, 0.1349824025169604, -0.017256711035519387, 0.9901721723525069,0.03226706928322004,0.002777099609375,-0.2367706298828125,-0.7484130859375
20220122-1222,2022-01-22 12:22:44Z,u01, 223,40,movements,el-ex, rt, d,292445.16430012503, -0.04396444633659405, 0.26486657790761065, 0.07238282171294583, 0.23578894138336182, 0.15082910656929016, 0.09387093782424927, -0.042417626827955246, -0.2617805004119873, -0.9641948342323303, 0.039350539445877075, 0.15965330600738525, -0.0586780309677124, 0.13271652259852756, -0.016996961496188467, 0.9904601531629365,0.03295746250659245,0.0836639404296875,-0.370849609375,-0.8635406494140625
20220122-1222,2022-01-22 12:22:44Z,u01, 224,40,movements,el-ex, rt, d,292445.18924512505, -0.0384685447495038, 0.27521543984653074, 0.07670343762128619, 0.3444422781467438, 0.3480134904384613, 0.20528952777385712, -0.03701171651482582, -0.27175426483154297, -0.9616547226905823, 0.02889396995306015, -0.009877294301986694, 0.027862608432769775, 0.1377780765510493, -0.013778676179983716, 0.989736766114589,0.035336503013010445,0.0665740966796875,-0.2248992919921875,-1.0311279296875
20220122-1222,2022-01-22 12:22:44Z,u01, 225,40,movements,el-ex, rt, d,292445.214190125, -0.03166633747347736, 0.27214198861316896, 0.0817261999953105, -0.6039843559265137, 0.22600555419921875, 0.15901045501232147, -0.030495835468173027, -0.2687952220439911, -0.9627144932746887, 0.05046951770782471, -0.13014593720436096, 0.05574733018875122, 0.13616206200543288, -0.010132163782648359, 0.9898932130390183,0.03832313723481884,-0.011138916015625,-0.105438232421875,-1.0159454345703125
20220122-1222,2022-01-22 12:22:44Z,u01, 226,40,movements,el-ex, rt, d,292445.239135125, -0.03024422378677096, 0.2453562037799586, 0.08567853781969748, -1.2904037237167358, -0.03247587010264397, 0.25447142124176025, -0.029333962127566338, -0.24290187656879425, -0.9696072340011597, 0.058447662740945816, -0.061892539262771606, -0.006619513034820557, 0.12288708913872512, -0.009754054870911692, 0.991539860611188,0.040650709164510225,-0.0131072998046875,-0.264739990234375,-0.9400634765625
20220122-1222,2022-01-22 12:22:44Z,u01, 227,40,movements,el-ex, rt, d,292445.26408112503, -0.032631222292381586, 0.2216232206767228, 0.09192544265980669, -0.5247199535369873, 0.028922976925969124, 0.23368749022483826, -0.031827475875616074, -0.21981343626976013, -0.9750226140022278, 0.015256360173225403, 0.038035377860069275, -0.04482907056808472, 0.11119848419980505, -0.011117377769999517, 0.9927678836212076,0.0438563777932935,0.022216796875,-0.4049072265625,-0.9093170166015625
20220122-1222,2022-01-22 12:22:44Z,u01, 228,40,movements,el-ex, rt, d,292445.28902612504, -0.03013429551873933, 0.2162951867582269, 0.09693128833309236, 0.030469607561826706, 0.2512105703353882, 0.1981387436389923, -0.02942769043147564, -0.21461261808872223, -0.9762558341026306, -0.01190844178199768, 0.11030343174934387, -0.017152369022369385, 0.10852358154884181, -0.009732376417115957, 0.992956472914899,0.04653383701068644,0.0303497314453125,-0.317138671875,-0.966949462890625
20220122-1222,2022-01-22 12:22:44Z,u01, 229,40,movements,el-ex, rt, d,292445.313971125, -0.02334536062601391, 0.21749634065178522, 0.1015729092826281, -0.09780773520469666, 0.3424628674983978, 0.14510922133922577, -0.02279329113662243, -0.21578562259674072, -0.9761747121810913, -0.005771232768893242, 0.02134278416633606, 0.04479348659515381, 0.10897566031850502, -0.006079192864038991, 0.9928078031769323,0.049196082285202246,-0.0238037109375,-0.1647796630859375,-1.0198822021484375
20220122-1222,2022-01-22 12:22:45Z,u01, 230,40,movements,el-ex, rt, d,292445.338916125, -0.01686246316047081, 0.20680327574610866, 0.10485195526054987, -0.7044029831886292, 0.20893920958042145, 0.13606758415699005, -0.01650238037109375, -0.20533233880996704, -0.9785531759262085, 0.01413719728589058, -0.038991495966911316, 0.074546217918396, 0.10351144536032592, -0.002965971312795004, 0.9933025436518463,0.05125117874579775,-0.0409393310546875,-0.0972747802734375,-0.99969482421875
20220122-1222,2022-01-22 12:22:45Z,u01, 231,40,movements,el-ex, rt, d,292445.363861125, -0.013225355445366136, 0.18635570483223035, 0.1077614127306114, -0.8073762655258179, 0.16290321946144104, 0.13520705699920654, -0.012995992787182331, -0.18527893722057343, -0.9826000332832336, 0.007701121270656586, 0.010397866368293762, 0.020197749137878418, 0.09326059704995815, -0.0015636980161761573, 0.9942285944145327,0.0530054822227434,-0.0264739990234375,-0.2002716064453125,-0.924072265625
20220122-1222,2022-01-22 12:22:45Z,u01, 232,40,movements,el-ex, rt, d,292445.38880612503, -0.008557092501255838, 0.170175593359139, 0.11020537530694599, -0.4779306650161743, 0.25045016407966614, 0.07501355558633804, -0.008433382958173752, -0.16935540735721588, -0.9855189323425293, -0.004399331286549568, 0.051282793283462524, -0.028442800045013428, 0.08509018652612176, 0.0004239147413215897, 0.9948808354491971,0.05451199742005466,-0.0011444091796875,-0.2475128173828125,-0.8995513916015625
20220122-1222,2022-01-22 12:22:45Z,u01, 233,40,movements,el-ex, rt, d,292445.41375016666, -0.002012002473234314, 0.16214782018914858, 0.11226970545344941, -0.1978655755519867, 0.2906290888786316, 0.09872560948133469, -0.0019856092985719442, -0.1614382266998291, -0.9868808388710022, 0.009065615013241768, 0.037857189774513245, -0.006359517574310303, 0.08091377623827427, 0.003542581354446943, 0.9951493936152537,0.05583971683969506,-0.0076904296875,-0.1686553955078125,-0.96893310546875
20220122-1222,2022-01-22 12:22:45Z,u01, 234,40,movements,el-ex, rt, d,292445.43869516667, 0.004925758244834595, 0.15710509702844488, 0.11455331409254074, -0.2721065282821655, 0.2903645634651184, 0.0618322379887104, 0.004865074530243874, -0.15645961463451385, -0.9876723885536194, 0.020479701459407806, 0.006190955638885498, 0.027436792850494385, 0.07820231626889369, 0.006943386907552917, 0.9952674320410279,0.05726159693075711,-0.014434814453125,-0.1191253662109375,-1.0131988525390625
20220122-1222,2022-01-22 12:22:45Z,u01, 235,40,movements,el-ex, rt, d,292445.4636411667, 0.011523427414265833, 0.14580641376267067, 0.11555429015000121, -0.6459165215492249, 0.2468189001083374, 0.01724100485444069, 0.011400900781154633, -0.1452903300523758, -0.9893233776092529, 0.0333988294005394, -0.01601041853427887, 0.028569042682647705, 0.07238407336963676, 0.009942786991443736, 0.995638765479818,0.058009636711670684,0.0103302001953125,-0.1240234375,-0.9911651611328125
20220122-1222,2022-01-22 12:22:45Z,u01, 236,40,movements,el-ex, rt, d,292445.4885861667, 0.016946237496955813, 0.12683652298077935, 0.11599043654890537, -0.7761598229408264, 0.19794148206710815, -0.003800763748586178, 0.016809305176138878, -0.12649671733379364, -0.9918245673179626, 0.0340634286403656, 0.005280792713165283, -0.024319171905517578, 0.0627768017423422, 0.012115065370626631, 0.9962450519024374,0.05838019285854091,0.0240631103515625,-0.148345947265625,-0.962188720703125
20220122-1222,2022-01-22 12:22:45Z,u01, 237,40,movements,el-ex, rt, d,292445.5135311667, 0.022131691126150436, 0.1107254870154259, 0.11582992053734277, -0.5010623335838318, 0.24745969474315643, -0.0382634662091732, 0.021994365379214287, -0.11049937456846237, -0.9936327934265137, 0.009637031704187393, 0.03202332556247711, -0.04225581884384155, 0.05459878220148978, 0.014232846670776747, 0.9966974199775217,0.05840164856623728,0.045501708984375,-0.160980224609375,-0.9646148681640625
20220122-1222,2022-01-22 12:22:45Z,u01, 238,40,movements,el-ex, rt, d,292445.53847616666, 0.029135400757763826, 0.10177860586663134, 0.11436159735820531, -0.19444186985492706, 0.2705551087856293, -0.10798829048871994, 0.028980525210499763, -0.10160297900438309, -0.9944028258323669, 0.000499386340379715, 0.03245004266500473, -0.04668909311294556, 0.049947383267665124, 0.01743129073826549, 0.9969250355616004,0.05780938430335791,0.0522003173828125,-0.127105712890625,-1.0117950439453125
20220122-1222,2022-01-22 12:22:45Z,u01, 239,40,movements,el-ex, rt, d,292445.5634211667, 0.036236717167915905, 0.09920028926275462, 0.11163295137589324, -0.04927319288253784, 0.27472835779190063, -0.11651992052793503, 0.03605067357420921, -0.09903766959905624, -0.994430422782898, 0.014120150357484818, 0.048622533679008484, -0.059280455112457275, 0.048484989647770906, 0.02083238362484553, 0.9970010239588181,0.05660659588995949,0.027252197265625,-0.075836181640625,-1.0379180908203125
20220122-1222,2022-01-22 12:22:45Z,u01, 240,40,movements,el-ex, rt, d,292445.5883661667, 0.043646528424778626, 0.09649138869882902, 0.10836241657158967, -0.16953308880329132, 0.2773226499557495, -0.14698687195777893, 0.04342970624566078, -0.09634172916412354, -0.9944003820419312, 0.0008207112550735474, -0.016191944479942322, -0.03553736209869385, 0.0469643780516056, 0.02437525097912921, 0.9970762125684925,0.05512964921919839,0.0259552001953125,-0.072723388671875,-1.03631591796875
20220122-1222,2022-01-22 12:22:45Z,u01, 241,40,movements,el-ex, rt, d,292445.6133111667, 0.050442572475870195, 0.09037486397124403, 0.1050712860902651, -0.3004254102706909, 0.24517205357551575, -0.12345106899738312, 0.05021541193127632, -0.09025189280509949, -0.9946522116661072, 0.007432222366333008, 0.007289759814739227, -0.04058033227920532, 0.043772470891897425, 0.027529408720682602, 0.9972238555983053,0.05357879853322922,0.0519256591796875,-0.051727294921875,-1.0530548095703125
20220122-1222,2022-01-22 12:22:45Z,u01, 242,40,movements,el-ex, rt, d,292445.63825716666, 0.05618667877893243, 0.08177128430579399, 0.10340879102991282, -0.339564710855484, 0.19418683648109436, -0.07394030690193176, 0.0559694766998291, -0.08168018609285355, -0.9950858354568481, 0.0011288449168205261, -0.014923304319381714, -0.031662821769714355, 0.0393530212559418, 0.030140263665748915, 0.9973760404788952,0.05276440002676584,0.0427398681640625,-0.1112213134765625,-1.02935791015625
20220122-1222,2022-01-22 12:22:45Z,u01, 243,40,movements,el-ex, rt, d,292445.6632021667, 0.06063979434927199, 0.07437306710921712, 0.10125360773943466, -0.2317727953195572, 0.15243792533874512, -0.1393125206232071, 0.060435108840465546, -0.07430452108383179, -0.9954026341438293, 0.008381962776184082, -0.003515399992465973, -0.055470168590545654, 0.03558021504975978, 0.03213601153155597, 0.997512544589788,0.05167256698915949,0.0593719482421875,-0.07958984375,-1.0345458984375
20220122-1222,2022-01-22 12:22:45Z,u01, 244,40,movements,el-ex, rt, d,292445.6881471667, 0.06406514354854452, 0.06925758326903907, 0.09848710867533304, -0.13257408142089844, 0.10933433473110199, -0.08632047474384308, 0.06386784464120865, -0.0692022293806076, -0.995556116104126, 0.02208484709262848, 0.007007308304309845, -0.06410574913024902, 0.03298661457943445, 0.03367243049745428, 0.9976224208446357,0.05027639738093673,0.05889892578125,-0.0971527099609375,-1.02398681640625
20220122-1222,2022-01-22 12:22:45Z,u01, 245,40,movements,el-ex, rt, d,292445.7130921667, 0.06666428336257986, 0.06664290584084621, 0.09676240018471408, -0.09661740064620972, 0.08620051294565201, -0.06030911207199097, 0.0664670467376709, -0.06659358739852905, -0.9955638647079468, 0.009140178561210632, -0.03158155828714371, -0.029368937015533447, 0.03164699027317654, 0.03487880231243233, 0.9976672882681263,0.04941759316728213,0.070465087890625,-0.0703887939453125,-1.0562896728515625
