SessionID,LoggingTime,UID,RecNo,Hertz,Activity,MoveType,Wrist,Side,TimeStamp,DMRoll,DMPitch,DMYaw,DMRotX,DMRotY,DMRotZ,DMGrvX,DMGrvY,DMGrvZ,DMUAccelX,DMUAccelY,DMUAccelZ,DMQuatX,DMQuatY,DMQuatW,DMQuatZ,AccelroX,AceelroY,AceelroZ
20220201-1604,2022-02-01 16:04:26Z,u01, 1,40,movements,el-ex, lt, nd,117604.55825312501, -3.0631942329988626, -0.4836413516329181, -3.1222465925167664, 0.13767728209495544, 0.022450948134064674, 0.01597665436565876, -0.06933565437793732, 0.4650059640407562, 0.8825885057449341, -0.020660676062107086, 0.015355885028839111, -0.00590968132019043, -0.9702031986162809, 0.0, 0.23964359631765755,-0.035732542988628574,-0.089996337890625,0.4803619384765625,0.876678466796875
20220201-1604,2022-02-01 16:04:26Z,u01, 2,40,movements,el-ex, lt, nd,117604.58320012501, -3.0640642667347477, -0.4860330958526133, -3.1224231812174112, 0.04439297318458557, -0.03400839865207672, -0.010578855872154236, -0.06848139315843582, 0.46712207794189453, 0.8815369009971619, 0.006164520978927612, -0.008366763591766357, -0.0036223530769348145, -0.9699321814583483, 2.9154658633401276e-05, 0.24080034386988158,-0.0353093932777187,-0.0665130615234375,0.46435546875,0.8755645751953125
20220201-1604,2022-02-01 16:04:26Z,u01, 3,40,movements,el-ex, lt, nd,117604.608148125, -3.0656439546882295, -0.48510815701542087, -3.122701430090686, 0.07209087908267975, -0.053576041013002396, 0.041959650814533234, -0.06712152808904648, 0.4663040339946747, 0.8820746541023254, -0.011903725564479828, -0.014460891485214233, -0.009469985961914062, -0.9700707883665572, -4.4187766224612623e-05, 0.24034694303041365,-0.03458525414653597,-0.0790252685546875,0.45184326171875,0.8726043701171875
20220201-1604,2022-02-01 16:04:26Z,u01, 4,40,movements,el-ex, lt, nd,117604.633096125, -3.065299565883888, -0.4896523855058028, -3.1232846511165446, 0.2443719059228897, -0.028567759320139885, 0.061722833663225174, -0.06726307421922684, 0.47031915187835693, 0.87992924451828, 0.003038860857486725, -0.008420556783676147, -0.013504624366760254, -0.969517650065871, 0.0003691847250568425, 0.24253992001898653,-0.03478129382427543,-0.0729827880859375,0.4580078125,0.8657684326171875
20220201-1604,2022-02-01 16:04:26Z,u01, 5,40,movements,el-ex, lt, nd,117604.658043125, -3.066101465504362, -0.49526962751448267, -3.1238711006476163, 0.11329943686723709, -0.056217893958091736, 0.032162945717573166, -0.06635713577270508, 0.4752689003944397, 0.8773346543312073, 0.011425532400608063, -0.02026727795600891, 0.016387939453125, -0.9688482284418388, 0.0006650775852717339, 0.24525158235632458,-0.03441372932849086,-0.054931640625,0.4550018310546875,0.8937225341796875
20220201-1604,2022-02-01 16:04:26Z,u01, 6,40,movements,el-ex, lt, nd,117604.68299112501, -3.068171458443486, -0.49227172273991726, -3.124873894371902, -0.1064225360751152, -0.08813082426786423, 0.03978385031223297, -0.06464513391256332, 0.4726291000843048, 0.8788869976997375, 0.011819250881671906, -0.014713138341903687, 0.004978299140930176, -0.9692485706422749, 0.0008406332669641248, 0.2437830085731734,-0.03355950263285004,-0.051361083984375,0.4520721435546875,0.8960723876953125
20220201-1604,2022-02-01 16:04:26Z,u01, 7,40,movements,el-ex, lt, nd,117604.70793812501, -3.0691862123722755, -0.49154061811636823, -3.1254954706321176, 0.1009022518992424, 0.2075423002243042, -0.14367711544036865, -0.06377824395895004, 0.4719846546649933, 0.8792967200279236, 0.0045436471700668335, -0.004180938005447388, -0.008828520774841309, -0.9693540905652838, 0.001004630156790448, 0.24341882166209677,-0.033149565539893545,-0.059234619140625,0.467803955078125,0.8704681396484375
20220201-1604,2022-02-01 16:04:27Z,u01, 8,40,movements,el-ex, lt, nd,117604.73288612501, -3.071525309418328, -0.49432421169961777, -3.1268199954607354, 0.06767802685499191, -0.1671587973833084, 0.14807702600955963, -0.06162910908460617, 0.47443687915802, 0.878129780292511, -0.19871634244918823, 0.026829510927200317, 0.07040262222290039, -0.9690525735272731, 0.0014117122218602618, 0.24474734163191506,-0.03215518722921225,0.26422119140625,0.416900634765625,0.8291168212890625
20220201-1604,2022-02-01 16:04:27Z,u01, 9,40,movements,el-ex, lt, nd,117604.757834125, -3.0739200679253904, -0.4937541563546199, -3.1288027419330953, -0.11922245472669601, -0.03676503524184227, 0.05154284089803696, -0.059544309973716736, 0.47393497824668884, 0.8785446286201477, -0.01391148567199707, 0.0012541413307189941, 0.03417539596557617, -0.9691584116557543, 0.0020695902880170647, 0.24444180600194262,-0.031241589523891118,-0.073455810546875,0.475189208984375,0.9127197265625
20220201-1604,2022-02-01 16:04:27Z,u01, 10,40,movements,el-ex, lt, nd,117604.782781125, -3.0751315730922095, -0.49150831097188274, -3.129933152860764, 0.0053177084773778915, -0.021326491609215736, 0.01350404229015112, -0.05855043604969978, 0.47195619344711304, 0.8796758055686951, 0.007174123078584671, 0.029844164848327637, -0.011679351329803467, -0.9694493193926415, 0.002431525847500754, 0.24333730180764454,-0.030808107666035346,-0.052978515625,0.50177001953125,0.8670654296875
20220201-1604,2022-02-01 16:04:27Z,u01, 11,40,movements,el-ex, lt, nd,117604.80772912501, -3.075495867385926, -0.49346254406499535, -3.1297989083125657, 0.10256786644458771, -0.016645653173327446, 0.011005798354744911, -0.05816895142197609, 0.4736781716346741, 0.8787752389907837, 0.005190446972846985, 0.006576836109161377, 0.01860976219177246, -0.9692172472390438, 0.002354845775072778, 0.24428684789094615,-0.030601740023389397,-0.052978515625,0.480255126953125,0.8973846435546875
20220201-1604,2022-02-01 16:04:27Z,u01, 12,40,movements,el-ex, lt, nd,117604.832676125, -3.075781420967115, -0.49449670600590057, -3.130252430766091, -0.0353255569934845, 0.02522296831011772, 0.01942644640803337, -0.05788576975464821, 0.4745887219905853, 0.8783025741577148, -0.018347129225730896, 0.017476648092269897, 0.03455483913421631, -0.9690948158036875, 0.00255696066640973, 0.2447813494186391,-0.030511753087514283,-0.0756378173828125,0.4857330322265625,0.9107208251953125
20220201-1604,2022-02-01 16:04:27Z,u01, 13,40,movements,el-ex, lt, nd,117604.85762412501, -3.075645378300836, -0.4916529786885879, -3.130744395192221, -0.11035196483135223, 0.012464361265301704, -0.005574976094067097, -0.05809394642710686, 0.47208371758461, 0.879637598991394, -0.0007286667823791504, 0.02893844246864319, 0.015046477317810059, -0.9694385823932894, 0.0027646523608968465, 0.24339562082004257,-0.03065679240349021,-0.0588226318359375,0.5010223388671875,0.894683837890625
20220201-1604,2022-02-01 16:04:27Z,u01, 14,40,movements,el-ex, lt, nd,117604.88257112501, -3.0746617835949666, -0.49139784337602016, -3.129861868133419, 0.08351220935583115, 0.03668481111526489, -0.05117994546890259, -0.058967169374227524, 0.47185879945755005, 0.8797000646591187, 0.022132478654384613, 0.016880005598068237, 0.0244290828704834, -0.9694555222787989, 0.0024522602983354236, 0.2432842988897007,-0.031027911947603223,-0.0380706787109375,0.4986572265625,0.8984832763671875
20220201-1604,2022-02-01 16:04:27Z,u01, 15,40,movements,el-ex, lt, nd,117604.907519125, -3.073027913193653, -0.49383664819287626, -3.128911820561268, 0.10133565217256546, 0.07288163900375366, 0.0018094368278980255, -0.06032538414001465, 0.47400760650634766, 0.8784518241882324, -0.00048086419701576233, -0.008309632539749146, 0.028027117252349854, -0.9691341100902967, 0.0022329221017522993, 0.24447912026524052,-0.03168663031997829,-0.0608062744140625,0.4656982421875,0.9064788818359375
20220201-1604,2022-02-01 16:04:27Z,u01, 16,40,movements,el-ex, lt, nd,117604.932467125, -3.071047197565183, -0.49496379776236055, -3.1292046205027857, -0.02853243425488472, 0.06636973470449448, 0.014860324561595917, -0.06202755123376846, 0.4749997854232788, 0.8777974247932434, 0.00152646005153656, 0.004461795091629028, 0.014719963073730469, -0.9689642784691943, 0.002637042193429001, 0.24501804630814383,-0.032673959094244004,-0.0708465576171875,0.47564697265625,0.89654541015625
20220201-1604,2022-02-01 16:04:27Z,u01, 17,40,movements,el-ex, lt, nd,117604.957414125, -3.070528582563219, -0.49549511269086866, -3.1290163035864307, -0.006156454794108868, 0.0068136658519506454, -0.036646608263254166, -0.06246483698487282, 0.4754672646522522, 0.87751305103302, 0.016139179468154907, 0.012096673250198364, 0.0021867752075195312, -0.9688909539948671, 0.002618900811836411, 0.24527784083980345,-0.03289820947151156,-0.04632568359375,0.4875640869140625,0.87969970703125
20220201-1604,2022-02-01 16:04:27Z,u01, 18,40,movements,el-ex, lt, nd,117604.98236212501, -3.070533092779698, -0.49361419642914156, -3.128620212258467, -0.07218404114246368, 0.03536175563931465, -0.009261257946491241, -0.06252426654100418, 0.4738117456436157, 0.878403902053833, -0.010275393724441528, -0.01626184582710266, 0.018294334411621094, -0.9691213703728777, 0.002392580322331306, 0.24437314999605608,-0.03286153632540687,-0.0712738037109375,0.4587554931640625,0.8927459716796875
20220201-1604,2022-02-01 16:04:27Z,u01, 19,40,movements,el-ex, lt, nd,117605.00730912501, -3.0690901951060265, -0.49169212292732134, -3.1287876745807477, 0.0036229388788342476, 0.06678485870361328, 0.010737950913608074, -0.06385750323534012, 0.47211822867393494, 0.8792194128036499, -0.006119281053543091, 0.003559112548828125, 0.011832952499389648, -0.9693311501844547, 0.0026147477302684574, 0.24343720984277079,-0.03359561619645745,-0.069976806640625,0.475677490234375,0.89105224609375
20220201-1604,2022-02-01 16:04:27Z,u01, 20,40,movements,el-ex, lt, nd,117605.032257125, -3.0678048992585776, -0.49323860031992456, -3.129142181797216, 0.011681031435728073, 0.08470799773931503, -0.01851307973265648, -0.06493359059095383, 0.4734809398651123, 0.8784072995185852, 0.0072248876094818115, 0.025755882263183594, 0.0031082630157470703, -0.9691206466711398, 0.002971838472279026, 0.2441787659796551,-0.03425007646055718,-0.065704345703125,0.4943695068359375,0.879852294921875
20220201-1604,2022-02-01 16:04:27Z,u01, 21,40,movements,el-ex, lt, nd,117605.057205125, -3.0657700179413574, -0.49108746515222096, -3.128100629535369, -0.13248735666275024, 0.0656018778681755, -0.053917206823825836, -0.06679791212081909, 0.47158512473106384, 0.8792869448661804, 0.01246139407157898, 0.005679041147232056, 0.00837796926498413, -0.9693483934185001, 0.002674293751999568, 0.2431516084978254,-0.03512587816054437,-0.0543365478515625,0.477264404296875,0.887664794921875
20220201-1604,2022-02-01 16:04:27Z,u01, 22,40,movements,el-ex, lt, nd,117605.082152125, -3.0632317708397343, -0.4867264432804305, -3.127137077435381, -0.046980082988739014, 0.09787586331367493, -0.024480557069182396, -0.0691898763179779, 0.4677349925041199, 0.8811564445495605, -0.00891982764005661, 0.011497557163238525, -0.01726478338241577, -0.9698310811173799, 0.002429212161050881, 0.2410516508394988,-0.036274876435307975,-0.0762786865234375,0.47442626953125,0.870513916015625
20220201-1604,2022-02-01 16:04:27Z,u01, 23,40,movements,el-ex, lt, nd,117605.10710012501, -3.0601493262113455, -0.48977510371546645, -3.1263254734218253, 0.12950074672698975, 0.09820276498794556, -0.029330305755138397, -0.07178929448127747, 0.4704274535179138, 0.8795134425163269, 0.007732942700386047, 0.018051892518997192, -0.01470637321472168, -0.969407355364525, 0.002470212075986161, 0.2425406903492594,-0.03764544990981282,-0.064056396484375,0.4884796142578125,0.86480712890625
20220201-1604,2022-02-01 16:04:27Z,u01, 24,40,movements,el-ex, lt, nd,117605.13204712501, -3.0592478745123612, -0.49329901832337336, -3.12590613568909, 0.01455764565616846, 0.03703209012746811, -0.03486621752381325, -0.072445347905159, 0.47353416681289673, 0.8777912855148315, -0.0038485899567604065, 0.013388961553573608, -0.01450967788696289, -0.9689631782894181, 0.002449979929643964, 0.24425487148111355,-0.03800050757069359,-0.0738677978515625,0.488739013671875,0.869354248046875
20220201-1604,2022-02-01 16:04:27Z,u01, 25,40,movements,el-ex, lt, nd,117605.15699512501, -3.0587185926381175, -0.4926526841196323, -3.1249144495469894, -0.045998044312000275, -0.009287605062127113, -0.0384746678173542, -0.07293522357940674, 0.4729647934436798, 0.8780573010444641, 0.0009137764573097229, 0.0030329227447509766, -0.0021265149116516113, -0.9690328016388283, 0.0020205327804963813, 0.2439600837609058,-0.0381416839151695,-0.072021484375,0.4759979248046875,0.8759307861328125
20220201-1604,2022-02-01 16:04:27Z,u01, 26,40,movements,el-ex, lt, nd,117605.18194212501, -3.058975234181159, -0.49349912161407916, -3.124477846958317, -0.03151717036962509, -0.015641242265701294, 0.0007002968341112137, -0.07267685979604721, 0.47371038794517517, 0.8776772618293762, 0.0024101361632347107, -0.003114074468612671, 0.009652316570281982, -0.9689351935336822, 0.0017955148590428904, 0.24437861871139457,-0.037956321947630135,-0.0665283203125,0.465911865234375,0.8873291015625
20220201-1604,2022-02-01 16:04:27Z,u01, 27,40,movements,el-ex, lt, nd,117605.206890125, -3.0587610456041125, -0.49619101609977423, -3.1246553678757643, 0.12578727304935455, 0.05200444906949997, 0.003623182885348797, -0.07275902479887009, 0.47607937455177307, 0.8763870596885681, -0.02396640181541443, 0.01973944902420044, -0.01188516616821289, -0.9686019105816218, 0.0019645093551234893, 0.24567876589039037,-0.038057070383218566,-0.0967254638671875,0.495819091796875,0.864501953125
20220201-1604,2022-02-01 16:04:27Z,u01, 28,40,movements,el-ex, lt, nd,117605.23183812501, -3.0567751598444226, -0.49992511063224077, -3.123690023528349, 0.07925122231245041, 0.033238813281059265, -0.05962789058685303, -0.07434820383787155, 0.47935980558395386, 0.8744638562202454, 0.012260198593139648, 0.01894637942314148, 0.016466617584228516, -0.9681056739725504, 0.0018217783377454666, 0.24750304813184076,-0.03886455608570775,-0.0677032470703125,0.5058135986328125,0.8834075927734375
20220201-1604,2022-02-01 16:04:27Z,u01, 29,40,movements,el-ex, lt, nd,117605.256785125, -3.056027576145199, -0.49853278200746737, -3.121991856519832, -0.07335979491472244, 0.009649533778429031, -0.0548957884311676, -0.07505886256694794, 0.47813740372657776, 0.8750718832015991, 0.002777993679046631, -0.006030648946762085, 0.02769923210144043, -0.9682638199045864, 0.001061768832377713, 0.2468617158638511,-0.03903021137817936,-0.0722808837890625,0.47210693359375,0.90277099609375
20220201-1604,2022-02-01 16:04:27Z,u01, 30,40,movements,el-ex, lt, nd,117605.28173312501, -3.0542323293095324, -0.4968906574123982, -3.120956241118488, -0.0319087877869606, 0.054574593901634216, -0.019881943240761757, -0.07669810950756073, 0.4766945242881775, 0.8757166862487793, 0.008933842182159424, -0.007105499505996704, 0.007156968116760254, -0.9684305822968503, 0.0007451701543139677, 0.24608641594124478,-0.03978853174838643,-0.071868896484375,0.465667724609375,0.8912353515625
20220201-1604,2022-02-01 16:04:27Z,u01, 31,40,movements,el-ex, lt, nd,117605.30668012501, -3.0522293227777264, -0.501579463212633, -3.120361498995378, 0.1899697184562683, 0.06388001143932343, -0.007336257491260767, -0.07825171202421188, 0.48081105947494507, 0.873325765132904, 0.01814734935760498, -0.008383780717849731, 0.007564425468444824, -0.9678131071018012, 0.00081126094202294, 0.2483667116355302,-0.0406352675514281,-0.0601043701171875,0.4724273681640625,0.880889892578125
20220201-1604,2022-02-01 16:04:27Z,u01, 32,40,movements,el-ex, lt, nd,117605.331628125, -3.0514260915644096, -0.5030354971352128, -3.120346348752734, -0.04381418600678444, 0.05205338075757027, -0.0040632993914186954, -0.07889002561569214, 0.48208722472190857, 0.8725642561912537, -0.0034768953919410706, -0.026505708694458008, 0.038812875747680664, -0.9676162766199313, 0.0009373776783044852, 0.2490710210855422,-0.041006428964482027,-0.07861328125,0.45733642578125,0.9097900390625
20220201-1604,2022-02-01 16:04:27Z,u01, 33,40,movements,el-ex, lt, nd,117605.356576125, -3.0505826970254115, -0.49845679184276154, -3.120430207108239, -0.1354498267173767, 0.03420301154255867, -0.021994629874825478, -0.07982571423053741, 0.4780706763267517, 0.8746867179870605, -0.01641145348548889, -0.002088099718093872, 0.009514689445495605, -0.9681644520794082, 0.0009760957321499342, 0.24685357387658016,-0.04147416334328074,-0.0962371826171875,0.475982666015625,0.8842010498046875
20220201-1604,2022-02-01 16:04:27Z,u01, 34,40,movements,el-ex, lt, nd,117605.381523125, -3.0501138376459016, -0.4959312341849259, -3.1201210387209515, -0.015385273844003677, 0.03509850054979324, -0.04653099924325943, -0.08034586161375046, 0.475850909948349, 0.8758488297462463, 0.0015036910772323608, 0.009592205286026001, -0.00428164005279541, -0.9684646315338906, 0.000825011073811277, 0.2456373194785482,-0.04169030356627919,-0.0831146240234375,0.48675537109375,0.868499755859375
20220201-1604,2022-02-01 16:04:27Z,u01, 35,40,movements,el-ex, lt, nd,117605.40647112501, -3.049035349360011, -0.495463885230501, -3.119276234912449, 0.06329739093780518, 0.0501311831176281, -0.015932675451040268, -0.0813109278678894, 0.47543981671333313, 0.8759827613830566, -0.008044518530368805, -0.00931444764137268, 0.010476827621459961, -0.9684993980339464, 0.0005372808945220409, 0.24542841821341382,-0.042113942097731984,-0.08935546875,0.46612548828125,0.8864593505859375
20220201-1604,2022-02-01 16:04:27Z,u01, 36,40,movements,el-ex, lt, nd,117605.43141812501, -3.0467480244651846, -0.49412209963866516, -3.1188182870781844, 0.011285485699772835, 0.07871095836162567, -0.006733783986419439, -0.08337468653917313, 0.4742589294910431, 0.8764285445213318, -0.01731802523136139, 0.0020744502544403076, 0.011037886142730713, -0.9686144517041292, 0.0005635172842172742, 0.2447879425503188,-0.04318053173889132,-0.0990447998046875,0.472930908203125,0.8949737548828125
20220201-1604,2022-02-01 16:04:27Z,u01, 37,40,movements,el-ex, lt, nd,117605.45636612501, -3.0440726787973116, -0.4951914566971932, -3.1183093178925345, -0.005170252174139023, 0.07392832636833191, -0.01827578991651535, -0.08566975593566895, 0.4752001166343689, 0.8756975531578064, -0.008385427296161652, 0.009357959032058716, -0.01728343963623047, -0.9684256998681879, 0.000671265457146103, 0.24531593293655116,-0.044401495720192516,-0.09405517578125,0.48455810546875,0.8584136962890625
20220201-1604,2022-02-01 16:04:27Z,u01, 38,40,movements,el-ex, lt, nd,117605.48131312501, -3.04295298804621, -0.4954958117629853, -3.1172738697653912, 0.02467309683561325, 0.0044983141124248505, -0.04196680337190628, -0.08663596212863922, 0.47546789050102234, 0.8754571080207825, 0.006634123623371124, -0.0069010257720947266, -0.009627223014831543, -0.9683637998772319, 0.00031496598436114853, 0.2454860779660212,-0.04481301355394295,-0.072784423828125,0.470855712890625,0.8628387451171875
20220201-1604,2022-02-01 16:04:27Z,u01, 39,40,movements,el-ex, lt, nd,117605.506261125, -3.04239283591504, -0.49431822286046573, -3.1165849344766037, -0.00909881480038166, 0.015385914593935013, 0.004936054348945618, -0.0871817022562027, 0.4744316041469574, 0.8759647011756897, -0.013404220342636108, -0.018087148666381836, 0.003658890724182129, -0.9684948942636864, 2.0054910516265068e-05, 0.24493148888791283,-0.0450139317339954,-0.1005859375,0.4563446044921875,0.8796234130859375
20220201-1604,2022-02-01 16:04:27Z,u01, 40,40,movements,el-ex, lt, nd,117605.53120912501, -3.0410861762710026, -0.49561807822645254, -3.116642008105987, 0.043880946934223175, 0.034408941864967346, -0.0006501255556941032, -0.08826427161693573, 0.47557544708251953, 0.8752358555793762, -0.0013505816459655762, 0.014155298471450806, -0.004645347595214844, -0.9683066981585797, 0.00024134589940918993, 0.24555929536863375,-0.04563781449894493,-0.0909423828125,0.4880218505859375,0.8685760498046875
20220201-1604,2022-02-01 16:04:27Z,u01, 41,40,movements,el-ex, lt, nd,117605.556155875, -3.0408117687030685, -0.49749960552616757, -3.1165964193676436, 0.02301487885415554, 0.017815450206398964, -0.008503121323883533, -0.0884142741560936, 0.4772297441959381, 0.8743199110031128, -0.0022229477763175964, 0.000797569751739502, 0.005654752254486084, -0.9680701786584902, 0.0003017792070649228, 0.2464708355579141,-0.045742052045922466,-0.09063720703125,0.47802734375,0.879974365234375
20220201-1604,2022-02-01 16:04:27Z,u01, 42,40,movements,el-ex, lt, nd,117605.58110387501, -3.0401168222766244, -0.4955881445576295, -3.116484231659162, -0.04466589540243149, 0.01604684628546238, 0.004515474662184715, -0.08911407738924026, 0.4755491316318512, 0.8751639127731323, -0.0002718791365623474, -0.0006194710731506348, -0.000743567943572998, -0.9682881175048554, 0.0002831954637435574, 0.24554830602624902,-0.04608811695767477,-0.0868377685546875,0.475006103515625,0.8799896240234375
20220201-1604,2022-02-01 16:04:27Z,u01, 43,40,movements,el-ex, lt, nd,117605.60605087501, -3.0393455114826096, -0.49643010224751866, -3.1165268606247967, 0.11541745066642761, 0.007665477693080902, 0.014184480533003807, -0.08974819630384445, 0.4762896001338959, 0.8746965527534485, 0.0028341487050056458, 0.013364821672439575, -0.02226388454437256, -0.968167386333044, 0.0004206753879616998, 0.24595464116361712,-0.04645639319784879,-0.0869140625,0.489654541015625,0.8524322509765625
20220201-1604,2022-02-01 16:04:27Z,u01, 44,40,movements,el-ex, lt, nd,117605.630998875, -3.039263840324252, -0.4991210149352699, -3.1164026736267068, 0.017416849732398987, -0.003858019597828388, 0.011939436197280884, -0.08968835324048996, 0.4786539673805237, 0.8734107613563538, 0.00852687656879425, -0.014939576387405396, 0.02365356683731079, -0.9678353086496077, 0.00044145697414249563, 0.24725950701115512,-0.04644729381986633,-0.0789031982421875,0.4631500244140625,0.8932647705078125
20220201-1604,2022-02-01 16:04:27Z,u01, 45,40,movements,el-ex, lt, nd,117605.655946875, -3.0394133301893738, -0.4981439725462397, -3.117097476916016, -0.04207231104373932, 0.01986435241997242, 0.028599373996257782, -0.08960549533367157, 0.47779589891433716, 0.8738894462585449, -0.0008943900465965271, 0.001955658197402954, 0.003155648708343506, -0.9679587710781797, 0.0007335526859884589, 0.2467706942698582,-0.04647281261704817,-0.0904998779296875,0.4797515869140625,0.877044677734375
20220201-1604,2022-02-01 16:04:27Z,u01, 46,40,movements,el-ex, lt, nd,117605.680893875, -3.038963166014891, -0.4991522589167052, -3.1175791558831683, 0.05980158969759941, 0.01626509241759777, 0.011813735589385033, -0.08994943648576736, 0.47868141531944275, 0.8733689785003662, 0.0038746297359466553, 0.012910813093185425, -0.014665186405181885, -0.967824049350557, 0.0010487676060521034, 0.24724709498753591,-0.04673785970240014,-0.09002685546875,0.48980712890625,0.859527587890625
20220201-1604,2022-02-01 16:04:27Z,u01, 47,40,movements,el-ex, lt, nd,117605.70584187501, -3.039356450846243, -0.5008263551282347, -3.11771571859821, 0.07049500942230225, -0.005177815444767475, 0.0035335011780261993, -0.089524045586586, 0.48015058040618896, 0.8726059198379517, 0.013275884091854095, -0.007067233324050903, -4.7087669372558594e-05, -0.9676268530121783, 0.0011101392859366177, 0.24805389967642455,-0.04654417690068355,-0.0762481689453125,0.47308349609375,0.87255859375
20220201-1604,2022-02-01 16:04:28Z,u01, 48,40,movements,el-ex, lt, nd,117605.73078887501, -3.0400305078318803, -0.49935183176261966, -3.118319214078602, -0.06046862527728081, -0.0012859385460615158, 0.029277678579092026, -0.08900751173496246, 0.47885662317276, 0.8733693957328796, -0.02149660885334015, -0.007680654525756836, 0.013379991054534912, -0.9678238795430794, 0.001280145486529105, 0.2473270491934799,-0.04631046299509536,-0.10357666015625,0.4653472900390625,0.8939208984375
20220201-1604,2022-02-01 16:04:28Z,u01, 49,40,movements,el-ex, lt, nd,117605.75573687501, -3.040179710455958, -0.4990432996923745, -3.1191606842352337, 0.033208198845386505, -0.0009738169610500336, 0.01816617324948311, -0.08889216184616089, 0.47858574986457825, 0.8735296726226807, -0.01651553064584732, 0.024893134832382202, -0.025430798530578613, -0.9678646932855326, 0.0016608901820290844, 0.24715840352523644,-0.04634592401828226,-0.10540771484375,0.50347900390625,0.8480987548828125
20220201-1604,2022-02-01 16:04:28Z,u01, 50,40,movements,el-ex, lt, nd,117605.78068387501, -3.04069511135025, -0.5020265849726899, -3.119043258956539, 0.11403696984052658, -0.021897275000810623, -0.0017607305198907852, -0.08829773962497711, 0.4812030494213104, 0.8721511363983154, 0.0013073831796646118, 0.007856369018554688, -0.0018963217735290527, -0.9675086315519784, 0.0016174011354307405, 0.24860454964607745,-0.04604709778972022,-0.0859527587890625,0.4972381591796875,0.859466552734375
20220201-1604,2022-02-01 16:04:28Z,u01, 51,40,movements,el-ex, lt, nd,117605.805631875, -3.0411099347739396, -0.5028777528040167, -3.1191791494862424, 0.08407047390937805, 0.002560798078775406, 0.040568750351667404, -0.08789480477571487, 0.48194900155067444, 0.8717796206474304, -0.014995180070400238, 0.003921180963516235, 0.02032560110092163, -0.9674125623933273, 0.001653462060463684, 0.2490133996132641,-0.04585337922093716,-0.1028900146484375,0.485870361328125,0.8921051025390625
20220201-1604,2022-02-01 16:04:28Z,u01, 52,40,movements,el-ex, lt, nd,117605.83057987501, -3.0396514724262973, -0.5054583127399974, -3.119148161180153, 0.06088463217020035, 0.02229968085885048, 0.010584551841020584, -0.08903931826353073, 0.48420849442481995, 0.8704105019569397, -0.001948811113834381, 0.020689398050308228, 0.0013853907585144043, -0.9670582645025806, 0.0018873233912020948, 0.25026045327790875,-0.04652458316014724,-0.0932464599609375,0.50457763671875,0.87109375
20220201-1604,2022-02-01 16:04:28Z,u01, 53,40,movements,el-ex, lt, nd,117605.855526875, -3.0391631593187394, -0.5090260432747229, -3.118620350486926, 0.05949612706899643, -0.009991278871893883, -0.02491685003042221, -0.08928711712360382, 0.4873270094394684, 0.8686427474021912, 0.0034259334206581116, 0.02651253342628479, 0.0028631091117858887, -0.9666013611638087, 0.001786745277114088, 0.2519964845170495,-0.04665192374787475,-0.0858612060546875,0.5138397216796875,0.8715057373046875
20220201-1604,2022-02-01 16:04:28Z,u01, 54,40,movements,el-ex, lt, nd,117605.88047487501, -3.038999017984492, -0.5086748690212503, -3.1181807548260463, -0.013557977974414825, -0.005952595733106136, 0.010631025768816471, -0.0894472599029541, 0.4870203137397766, 0.8687986731529236, -0.004714734852313995, -0.010381549596786499, 0.014838159084320068, -0.9666420402565834, 0.001585739043962614, 0.25183690163039285,-0.046680132449401154,-0.0945281982421875,0.47430419921875,0.884490966796875
20220201-1604,2022-02-01 16:04:28Z,u01, 55,40,movements,el-ex, lt, nd,117605.90542187501, -3.038783584231317, -0.510355551990892, -3.118464070223079, 0.1454751193523407, 0.01220676675438881, 0.020457889884710312, -0.08955025672912598, 0.48848751187324524, 0.8679635524749756, -0.0009190887212753296, 0.018058329820632935, -0.010190606117248535, -0.9664256607040795, 0.0017940277417416994, 0.25264209251344144,-0.04679964104343108,-0.0904693603515625,0.5065460205078125,0.8577728271484375
20220201-1604,2022-02-01 16:04:28Z,u01, 56,40,movements,el-ex, lt, nd,117605.930369875, -3.0380238023200943, -0.5156947852058794, -3.1177644659073973, 0.13677290081977844, 0.012528609484434128, -0.03287896886467934, -0.08993875980377197, 0.493139386177063, 0.8652886748313904, 0.0034061968326568604, 0.01687014102935791, 0.012549519538879395, -0.9657336398777351, 0.0016936632743867197, 0.2552360864223118,-0.04701261483571656,-0.0909881591796875,0.51580810546875,0.874298095703125
20220201-1604,2022-02-01 16:04:28Z,u01, 57,40,movements,el-ex, lt, nd,117605.95531687501, -3.0372895663783517, -0.5160447022942874, -3.1169040928401137, -0.047142334282398224, 0.013004783540964127, -0.010737447068095207, -0.0905560851097107, 0.4934437870979309, 0.8650506734848022, 0.004328697919845581, -0.012593835592269897, 0.03166264295578003, -0.9656725215999342, 0.0013812950138653857, 0.2554247042261408,-0.047252932284231074,-0.0862274169921875,0.4808502197265625,0.8967132568359375
20220201-1604,2022-02-01 16:04:28Z,u01, 58,40,movements,el-ex, lt, nd,117605.980264875, -3.036917517521913, -0.5162313495633969, -3.1170241666943586, 0.12359894812107086, 0.03028636984527111, 0.013493656180799007, -0.09086833894252777, 0.4936061203479767, 0.8649256825447083, 0.004595153033733368, -0.0036159753799438477, -0.015956878662109375, -0.965640007155964, 0.001491795509133531, 0.25551165450084445,-0.04744556838806485,-0.0878143310546875,0.488372802734375,0.8520660400390625
20220201-1604,2022-02-01 16:04:28Z,u01, 59,40,movements,el-ex, lt, nd,117606.00521287501, -3.035832265151786, -0.5223515169580387, -3.1164448244329526, 0.2427101582288742, 0.02317759208381176, 0.001693190075457096, -0.09148631244897842, 0.49891945719718933, 0.8618062138557434, 0.002298712730407715, -0.0027953386306762695, 0.006647944450378418, -0.9648320140994909, 0.0015169055940089105, 0.2584773199196633,-0.047816866568271346,-0.0891876220703125,0.496124267578125,0.8684539794921875
20220201-1604,2022-02-01 16:04:28Z,u01, 60,40,movements,el-ex, lt, nd,117606.03015987501, -3.03513081423891, -0.5257818734068772, -3.116006334067431, 0.16379782557487488, 0.04564628377556801, -0.00683065690100193, -0.09190840274095535, 0.5018894076347351, 0.8600350022315979, -0.011714018881320953, 0.011294066905975342, 0.0006983280181884766, -0.9643730019204892, 0.0014898398936102064, 0.26014116907767754,-0.04805378363364751,-0.10430908203125,0.5127105712890625,0.8657989501953125
20220201-1604,2022-02-01 16:04:28Z,u01, 61,40,movements,el-ex, lt, nd,117606.05510787501, -3.0341890312636175, -0.5266994170283205, -3.1154958510686224, 0.08965954929590225, 0.010953282937407494, -0.009669852443039417, -0.09266895800828934, 0.5026828050613403, 0.8594900965690613, 0.017397336661815643, -0.002194523811340332, 0.005439579486846924, -0.9642318817791012, 0.0013915242618086354, 0.2605950159806353,-0.04842932767202422,-0.0752716064453125,0.50048828125,0.86492919921875
20220201-1604,2022-02-01 16:04:28Z,u01, 62,40,movements,el-ex, lt, nd,117606.08005487501, -3.034373317664589, -0.5301688710600945, -3.1153682673783605, 0.2934667766094208, 0.008201772347092628, 0.029298920184373856, -0.09232330322265625, 0.5056790113449097, 0.8577674031257629, -0.020118676126003265, 0.006359875202178955, -0.00789862871170044, -0.963785113238381, 0.0014016571088919239, 0.262269925534128,-0.04827763503321636,-0.1039886474609375,0.5078277587890625,0.849884033203125
20220201-1604,2022-02-01 16:04:28Z,u01, 63,40,movements,el-ex, lt, nd,117606.105002875, -3.033209581679923, -0.5391594631275873, -3.1149432288843855, 0.47165149450302124, 0.04744651913642883, 0.029935013502836227, -0.09282596409320831, 0.5134148597717285, 0.8531056046485901, -0.020073823630809784, 0.01717895269393921, -0.009645164012908936, -0.9625748028600682, 0.0016000599948297611, 0.26660741207866756,-0.04866070697865947,-0.1128997802734375,0.5305938720703125,0.8434600830078125
20220201-1604,2022-02-01 16:04:28Z,u01, 64,40,movements,el-ex, lt, nd,117606.12995087501, -3.0318134179474003, -0.5498296458396701, -3.113467199949253, 0.4415892958641052, 0.026402946561574936, -0.04260503128170967, -0.0934114083647728, 0.5225419998168945, 0.847481369972229, 0.0057344213128089905, 0.025080621242523193, 0.0012433528900146484, -0.9611133135051547, 0.0013778334218648436, 0.27177180697242975,-0.04898502702142208,-0.0877685546875,0.556396484375,0.837677001953125
20220201-1604,2022-02-01 16:04:28Z,u01, 65,40,movements,el-ex, lt, nd,117606.154897875, -3.0305756930294847, -0.5586962310124102, -3.111805495803734, 0.3697391152381897, 0.02021755464375019, 0.025342125445604324, -0.0939432755112648, 0.5300810933113098, 0.8427271842956543, 0.002787277102470398, -0.023489415645599365, 0.031922221183776855, -0.959876347532066, 0.0010020888497722646, 0.276068095103252,-0.04922330048510846,-0.091156005859375,0.506591796875,0.8746490478515625
20220201-1604,2022-02-01 16:04:28Z,u01, 66,40,movements,el-ex, lt, nd,117606.17984587501, -3.0290858269464747, -0.5732320437524073, -3.1116212963303433, 0.8403955698013306, 0.08931726217269897, 0.0775318294763565, -0.09432360529899597, 0.5423502922058105, 0.8348407745361328, -0.004034519195556641, 0.010093867778778076, -0.022462785243988037, -0.9578194106880766, 0.001542035776285866, 0.28303718798375543,-0.04969439310430263,-0.101043701171875,0.536468505859375,0.82501220703125
20220201-1604,2022-02-01 16:04:28Z,u01, 67,40,movements,el-ex, lt, nd,117606.20479287501, -3.0256985767434514, -0.6009615430237134, -3.1096153132216338, 1.3264575004577637, 0.09044544398784637, 0.019498150795698166, -0.0953747034072876, 0.5654358267784119, 0.8192594647407532, 0.0034862980246543884, 0.04248940944671631, -0.04191559553146362, -0.9537432240515119, 0.001893342670609116, 0.2963293636568655,-0.05058846549153541,-0.091888427734375,0.6079254150390625,0.77734375
20220201-1604,2022-02-01 16:04:28Z,u01, 68,40,movements,el-ex, lt, nd,117606.229740875, -3.020526093136504, -0.6347329829045321, -3.104637238029909, 1.3539645671844482, 0.08152338862419128, 0.014108248054981232, -0.09724850207567215, 0.5929625034332275, 0.7993364334106445, -0.0028949230909347534, 0.00251162052154541, 0.012492537498474121, -0.9485074465193843, 0.0013538066288989459, 0.31250282578187616,-0.051709999862852185,-0.10369873046875,0.6016845703125,0.810455322265625
20220201-1604,2022-02-01 16:04:28Z,u01, 69,40,movements,el-ex, lt, nd,117606.254687875, -3.016090406402581, -0.6658276650535359, -3.100872756835247, 1.1411468982696533, 0.11508068442344666, 0.06170785799622536, -0.0984368547797203, 0.6177102327346802, 0.7802210450172424, -0.015241123735904694, -0.020465970039367676, 0.03769618272781372, -0.9434558093988261, 0.0012863822752195164, 0.3272940046354963,-0.05261449806588987,-0.113677978515625,0.5972442626953125,0.8179168701171875
20220201-1604,2022-02-01 16:04:28Z,u01, 70,40,movements,el-ex, lt, nd,117606.279635875, -3.0123967435558208, -0.6943936047493453, -3.099448786056055, 1.2126963138580322, 0.09839418530464172, 0.12004473805427551, -0.09900359064340591, 0.6399195790290833, 0.7620375156402588, 0.004505924880504608, 0.012927532196044922, 0.008195757865905762, -0.9386234447155035, 0.0021883627868714006, 0.34075713817159287,-0.05353317565091448,-0.0976715087890625,0.6449737548828125,0.77911376953125
20220201-1604,2022-02-01 16:04:28Z,u01, 71,40,movements,el-ex, lt, nd,117606.30458387501, -3.008534976776469, -0.7251799243019057, -3.097116289953773, 1.2413090467453003, 0.09063805639743805, 0.08983603119850159, -0.09928412735462189, 0.663270115852356, 0.7417649030685425, -0.006077781319618225, 0.018370211124420166, 0.025874316692352295, -0.9332065350426535, 0.0028297693723804695, 0.35520697957976094,-0.05427224823410402,-0.1053619384765625,0.681640625,0.76763916015625
20220201-1604,2022-02-01 16:04:28Z,u01, 72,40,movements,el-ex, lt, nd,117606.32953087501, -3.004324774094971, -0.7548245409357722, -3.094822016902505, 1.1667053699493408, 0.1372969150543213, 0.1110190823674202, -0.09967109560966492, 0.6851608753204346, 0.7215402126312256, -0.02488638460636139, -0.032313764095306396, 0.01515430212020874, -0.9277700615351241, 0.0035796168231028436, 0.36903870351212453,-0.05513927229744534,-0.1236572265625,0.656280517578125,0.7476043701171875
20220201-1604,2022-02-01 16:04:28Z,u01, 73,40,movements,el-ex, lt, nd,117606.354478875, -2.999729231416756, -0.7850409156347732, -3.0940887960168606, 1.270260214805603, 0.1668081283569336, 0.17053639888763428, -0.1000121533870697, 0.7068541049957275, 0.7002533078193665, -0.004861481487751007, -0.0024322867393493652, -0.020001113414764404, -0.9220083892261624, 0.005213990704379057, 0.3830040885059961,-0.05640193531490989,-0.1048736572265625,0.7044219970703125,0.6802520751953125
20220201-1604,2022-02-01 16:04:28Z,u01, 74,40,movements,el-ex, lt, nd,117606.37942587501, -2.9945805724499244, -0.8198500889228131, -3.0917187133044948, 1.5294172763824463, 0.12919697165489197, 0.09785114228725433, -0.09994996339082718, 0.7310435771942139, 0.6749708652496338, 0.0018969997763633728, 0.06200134754180908, -0.018537461757659912, -0.9151195469471338, 0.006452827846830739, 0.3990202468728676,-0.05742396443083189,-0.0934906005859375,0.791839599609375,0.6509552001953125
20220201-1604,2022-02-01 16:04:28Z,u01, 75,40,movements,el-ex, lt, nd,117606.404373875, -2.986839941625857, -0.8610590366576418, -3.086297221257892, 1.8011027574539185, 0.1835610717535019, 0.13918785750865936, -0.10044019669294357, 0.7585331201553345, 0.6438473463058472, -0.0035179108381271362, 0.015896081924438477, 0.03756457567214966, -0.9065714539731984, 0.0072022822740702985, 0.4178861565984704,-0.05871554193846449,-0.1039581298828125,0.7744293212890625,0.6814117431640625
20220201-1604,2022-02-01 16:04:28Z,u01, 76,40,movements,el-ex, lt, nd,117606.42932187501, -2.9765217524555663, -0.910221277699327, -3.0811030905924857, 2.0540523529052734, 0.3232410252094269, 0.21534767746925354, -0.10082344710826874, 0.7896395325660706, 0.6052309274673462, -0.013571701943874359, 0.03171062469482422, 0.016839683055877686, -0.895841343253757, 0.009152035010934784, 0.4401042721715686,-0.060769211360212114,-0.1113739013671875,0.80499267578125,0.6401214599609375
20220201-1604,2022-02-01 16:04:28Z,u01, 77,40,movements,el-ex, lt, nd,117606.45426887501, -2.961961719925086, -0.9602927190581643, -3.0742134003327592, 1.9224973917007446, 0.3447839915752411, 0.1239132434129715, -0.1024259701371193, 0.8193594217300415, 0.5640560984611511, 0.0021909773349761963, 0.022757887840270996, -0.02738898992538452, -0.8842467115429108, 0.01165312149373332, 0.4624656954148656,-0.06401171950262256,-0.1002349853515625,0.8421173095703125,0.5366668701171875
20220201-1604,2022-02-01 16:04:28Z,u01, 78,40,movements,el-ex, lt, nd,117606.47921687501, -2.9469858748401228, -1.0051215717194002, -3.0637177029099156, 1.7041798830032349, 0.14944924414157867, 0.10590534657239914, -0.1036493331193924, 0.844227135181427, 0.5258684158325195, 0.040874674916267395, -0.030643820762634277, 0.03794407844543457, -0.8733671706343339, 0.012805908693869772, 0.48234364990446227,-0.06641137707797955,-0.0606689453125,0.819610595703125,0.54974365234375
20220201-1604,2022-02-01 16:04:28Z,u01, 79,40,movements,el-ex, lt, nd,117606.50416387501, -2.9350846469017178, -1.0465800905946254, -3.0543448449469714, 1.6741456985473633, 0.2373911440372467, 0.18615204095840454, -0.10263127833604813, 0.8657165169715881, 0.489899605512619, -0.020293518900871277, -0.05246901512145996, 0.07809367775917053, -0.862993040470669, 0.013885779658105307, 0.5004915792203023,-0.06751544015783212,-0.1229248046875,0.8132476806640625,0.5679931640625
20220201-1604,2022-02-01 16:04:28Z,u01, 80,40,movements,el-ex, lt, nd,117606.529111875, -2.918050823663622, -1.090387044287104, -3.0459554442051133, 1.7950047254562378, 0.45837274193763733, 0.2113659828901291, -0.10244978964328766, 0.8868058323860168, 0.45064306259155273, -0.023954004049301147, 0.09169429540634155, 2.54213809967041e-05, -0.8514852061932534, 0.017160249100535235, 0.5193172728996801,-0.07062543063104898,-0.1385650634765625,0.9473724365234375,0.4857940673828125
20220201-1604,2022-02-01 16:04:28Z,u01, 81,40,movements,el-ex, lt, nd,117606.554059125, -2.8918269854785823, -1.1382852522199707, -3.0268707146256704, 2.1374332904815674, 0.2730378210544586, 0.034083157777786255, -0.10360479354858398, 0.9079160690307617, 0.40614625811576843, 0.02819584310054779, 0.07403284311294556, -0.04497045278549194, -0.8382770088025668, 0.01909920408212376, 0.5398488374460447,-0.07409612547059652,-0.075408935546875,0.9819488525390625,0.361175537109375
20220201-1604,2022-02-01 16:04:28Z,u01, 82,40,movements,el-ex, lt, nd,117606.57900712501, -2.8572838232715756, -1.1888584622824738, -2.9965603845269313, 1.8529106378555298, 0.31737807393074036, 0.12866657972335815, -0.10454561561346054, 0.9279441237449646, 0.35775694251060486, -0.012046776711940765, -0.056636810302734375, 0.12915119528770447, -0.8237048911791693, 0.019715985666291236, 0.5614339746623657,-0.07689893725418942,-0.0998382568359375,0.8737945556640625,0.487274169921875
20220201-1604,2022-02-01 16:04:28Z,u01, 83,40,movements,el-ex, lt, nd,117606.60395512501, -2.825485728111399, -1.2279268452634005, -2.9739558370660384, 1.4105857610702515, 0.5234849452972412, 0.17495764791965485, -0.10451116412878036, 0.9417938590049744, 0.3195333480834961, -0.04040152579545975, -0.03247702121734619, 0.04818838834762573, -0.8119406791101407, 0.022781858988658713, 0.5777040608985318,-0.08056839100865458,-0.1449127197265625,0.9093170166015625,0.3677215576171875
20220201-1604,2022-02-01 16:04:28Z,u01, 84,40,movements,el-ex, lt, nd,117606.62890212501, -2.789676388236266, -1.2634750210260368, -2.9470491862075154, 1.655092716217041, 0.27043139934539795, 0.0846099779009819, -0.10427342355251312, 0.953147292137146, 0.2839677631855011, 0.03299960494041443, 0.049599409103393555, -0.06115862727165222, -0.800825955923331, 0.02572295128412916, 0.5924002983380254,-0.08413188230624313,-0.075531005859375,0.997650146484375,0.2170867919921875
20220201-1604,2022-02-01 16:04:28Z,u01, 85,40,movements,el-ex, lt, nd,117606.653850125, -2.7299479540403535, -1.307074270927661, -2.890242233247563, 1.967427134513855, 0.21081939339637756, 0.05110334977507591, -0.10430115461349487, 0.9654264450073242, 0.23890064656734467, 0.007819801568984985, 0.012189090251922607, 0.04376879334449768, -0.7866266302752377, 0.025862505927923232, 0.6108097862600766,-0.08637852687910323,-0.0964813232421875,0.9776153564453125,0.2826690673828125
20220201-1604,2022-02-01 16:04:28Z,u01, 86,40,movements,el-ex, lt, nd,117606.678797125, -2.649490202686639, -1.3487010252657954, -2.8146574353363283, 1.6659231185913086, 0.3740828335285187, 0.10175208002328873, -0.10407482087612152, 0.9754380583763123, 0.19413620233535767, -0.023244500160217285, -0.030751287937164307, 0.05948027968406677, -0.7722379994325236, 0.026768896459507766, 0.6284746736250898,-0.08917067735846351,-0.1291961669921875,0.9472808837890625,0.270355224609375
20220201-1604,2022-02-01 16:04:28Z,u01, 87,40,movements,el-ex, lt, nd,117606.703745125, -2.5583009884716317, -1.3829465457862493, -2.730616428691118, 1.4055804014205933, 0.27074989676475525, 0.0867447704076767, -0.1028558537364006, 0.9824080467224121, 0.15586978197097778, 0.0005761533975601196, 0.0012499094009399414, 0.004164710640907288, -0.7596687996225737, 0.028951784852556436, 0.6430887779326524,-0.09220662438804672,-0.1022796630859375,0.9836578369140625,0.1600341796875
20220201-1604,2022-02-01 16:04:29Z,u01, 88,40,movements,el-ex, lt, nd,117606.728692125, -2.4368282553052887, -1.411354251566062, -2.611664266500619, 1.4292776584625244, 0.12795940041542053, 0.014948808588087559, -0.10285840183496475, 0.9873160123825073, 0.12094362080097198, 0.01647838205099106, -0.045467257499694824, 0.06089567393064499, -0.7480870165295633, 0.028941743508650725, 0.6562519118619904,-0.09413647830101447,-0.0818939208984375,0.9579010009765625,0.1566162109375
20220201-1604,2022-02-01 16:04:29Z,u01, 89,40,movements,el-ex, lt, nd,117606.75364012501, -2.292963525195738, -1.4351166194836307, -2.4712152549311037, 1.0009706020355225, 0.29103732109069824, 0.08088500797748566, -0.10149845480918884, 0.9908096194267273, 0.08941095322370529, -0.022021442651748657, -0.04011082649230957, 0.11406528204679489, -0.7374402539434095, 0.029788390409087886, 0.6679200541293572,-0.09579825484850212,-0.1235198974609375,0.9506988525390625,0.2034759521484375
20220201-1604,2022-02-01 16:04:29Z,u01, 90,40,movements,el-ex, lt, nd,117606.778588125, -2.161230889405, -1.448206074621093, -2.346345932257324, 0.8655417561531067, 0.27234119176864624, -0.008574760518968105, -0.10158185660839081, 0.9924952387809753, 0.0680786594748497, 0.01292826235294342, 0.019757747650146484, -0.03658425062894821, -0.7300949991947349, 0.03163261205238521, 0.6754207577581272,-0.0988313204365843,-0.1039886474609375,1.003509521484375,0.0374755859375
20220201-1604,2022-02-01 16:04:29Z,u01, 91,40,movements,el-ex, lt, nd,117606.803535125, -1.9606119320583868, -1.460680910751795, -2.148212379292459, 1.3264135122299194, 0.0987238809466362, 0.04448579624295235, -0.10164926946163177, 0.9939433932304382, 0.04176152125000954, 0.02544686198234558, 0.05847054719924927, 0.018221020698547363, -0.7210250841193182, 0.03167947821439501, 0.6848380628622371,-0.10057895129473618,-0.076202392578125,1.0524139404296875,0.0599822998046875
20220201-1604,2022-02-01 16:04:29Z,u01, 92,40,movements,el-ex, lt, nd,117606.828483125, -1.6020692571940083, -1.4697459828837967, -1.7923532869616807, 1.5540266036987305, 0.28498131036758423, -0.01343429647386074, -0.1008303314447403, 0.9948987364768982, 0.0031542882788926363, -0.03965736925601959, 0.03140753507614136, 0.06340479850769043, -0.7075130362409695, 0.03166145419101389, 0.6985081095132337,-0.10251535163531932,-0.1337738037109375,1.0244903564453125,0.080718994140625
20220201-1604,2022-02-01 16:04:29Z,u01, 93,40,movements,el-ex, lt, nd,117606.853430125, -1.3034185748654472, -1.464570342821919, -1.4997997802300975, 0.8079633116722107, 0.31526511907577515, -0.08846626430749893, -0.10226020216941833, 0.9943633079528809, -0.02801286056637764, -0.013828679919242859, -0.023156583309173584, 0.04810893535614014, -0.6963874885572074, 0.03221856341542674, 0.7090294433351498,-0.10622535662613893,-0.1160888671875,0.9712066650390625,0.0200958251953125
20220201-1604,2022-02-01 16:04:29Z,u01, 94,40,movements,el-ex, lt, nd,117606.87837812501, -1.2391319123411488, -1.461045022293721, -1.440826079443013, -0.052690133452415466, 0.1495298147201538, -0.0035198144614696503, -0.10356218367815018, 0.9939833879470825, -0.035665325820446014, 0.020172879099845886, -0.036540091037750244, 0.022207319736480713, -0.6935824911550452, 0.033326630289403344, 0.7113278219091612,-0.10883673251076609,-0.08038330078125,0.9446563720703125,0.000946044921875
20220201-1604,2022-02-01 16:04:29Z,u01, 95,40,movements,el-ex, lt, nd,117606.903326125, -1.189427636001144, -1.4604742318904216, -1.3945905001972485, 0.5989366769790649, 0.18785355985164642, 0.05295391380786896, -0.10218850523233414, 0.9939206838607788, -0.04097765311598778, -0.005233399569988251, 0.04381430149078369, 0.0007557310163974762, -0.6915915053501226, 0.03481900078981641, 0.7130480385050635,-0.10977849048204057,-0.107421875,1.0377349853515625,-0.04022216796875
20220201-1604,2022-02-01 16:04:29Z,u01, 96,40,movements,el-ex, lt, nd,117606.92827312501, -1.0162726500623893, -1.4504407797360395, -1.2266807705345053, 1.0209126472473145, 0.28887099027633667, -0.06641509383916855, -0.10207369923591614, 0.9927660226821899, -0.06321901082992554, -0.021308884024620056, 0.06074655055999756, -0.01675199717283249, -0.6834529152668145, 0.035813516663793524, 0.720395921771632,-0.1124243688848606,-0.12750244140625,1.0711517333984375,-0.0613861083984375
20220201-1604,2022-02-01 16:04:29Z,u01, 97,40,movements,el-ex, lt, nd,117606.953221125, -0.8753590137628661, -1.4341195519072416, -1.0912626850059068, 0.8219636678695679, 0.2179686576128006, -0.16233596205711365, -0.10461076349020004, 0.9906742572784424, -0.08729961514472961, 0.004848770797252655, -0.011258304119110107, -0.0051988884806632996, -0.674586735272075, 0.03581797677193124, 0.7281127329411592,-0.11619692904735661,-0.099761962890625,0.9794158935546875,-0.092498779296875
20220201-1604,2022-02-01 16:04:29Z,u01, 98,40,movements,el-ex, lt, nd,117606.978168125, -0.8159225840102988, -1.421696590469054, -1.0352693296455124, 0.2861141562461853, 0.12840081751346588, -0.15047144889831543, -0.10819651931524277, 0.9889051914215088, -0.10178496688604355, 0.019130945205688477, -0.030332744121551514, 0.04020071029663086, -0.6692349498289404, 0.0351012725082992, 0.7325774655427357,-0.11925955326183528,-0.0864715576171875,0.94793701171875,-0.0734100341796875
20220201-1604,2022-02-01 16:04:29Z,u01, 99,40,movements,el-ex, lt, nd,117607.00311612501, -0.8199773050021223, -1.4185640344808512, -1.0422174140108764, -0.03212463855743408, 0.11372420191764832, -0.09473088383674622, -0.110872283577919, 0.9884350299835205, -0.103457972407341, 0.0006580427289009094, -0.004136264324188232, 0.033008404076099396, -0.668612559973161, 0.03504650613834637, 0.732809357767576,-0.12132370143495542,-0.1102142333984375,0.9842987060546875,-0.0704498291015625
20220201-1604,2022-02-01 16:04:29Z,u01, 100,40,movements,el-ex, lt, nd,117607.028063125, -0.8295767043332493, -1.4166642548998478, -1.0554959846829441, 0.026149090379476547, 0.11928681284189224, -0.12551084160804749, -0.11324543505907059, 0.9881451725959778, -0.10365677624940872, -0.00011213123798370361, 0.025542020797729492, -0.017589330673217773, -0.6685183614508773, 0.035423345205110465, 0.7325114141393846,-0.12351302157651438,-0.1207275390625,1.0120697021484375,-0.1165924072265625
20220201-1604,2022-02-01 16:04:29Z,u01, 101,40,movements,el-ex, lt, nd,117607.05301112501, -0.8263628417800019, -1.4124887861435216, -1.0540609155413034, 0.2376013547182083, 0.04680103063583374, -0.09925512969493866, -0.11594521254301071, 0.987495481967926, -0.10681481659412384, 0.006997428834438324, -0.0006638169288635254, -0.015926651656627655, -0.6673629083139786, 0.034919067158124845, 0.7332960586438314,-0.12523714015973153,-0.10894775390625,0.9868316650390625,-0.12274169921875
20220201-1604,2022-02-01 16:04:29Z,u01, 102,40,movements,el-ex, lt, nd,117607.077959125, -0.8009650973491781, -1.4054840324506148, -1.0301939391766242, 0.28587785363197327, 0.08088322728872299, -0.1130930483341217, -0.11815880239009857, 0.9863669872283936, -0.11453616619110107, -0.001500636339187622, -0.00835496187210083, 0.02023710310459137, -0.6644963338042381, 0.03430072636600419, 0.735641936843741,-0.12688174629431026,-0.1226348876953125,0.97186279296875,-0.1059112548828125
20220201-1604,2022-02-01 16:04:29Z,u01, 103,40,movements,el-ex, lt, nd,117607.102906125, -0.7908835014695969, -1.400301413018105, -1.0218873156552353, 0.09640803188085556, 0.08980448544025421, -0.09364698082208633, -0.12063134461641312, 0.9855009317398071, -0.11931513994932175, 0.003871053457260132, -0.011944353580474854, 0.029044389724731445, -0.6627218741373552, 0.03379566420135109, 0.7369675893991235,-0.1285938845780466,-0.11676025390625,0.9735565185546875,-0.09027099609375
20220201-1604,2022-02-01 16:04:29Z,u01, 104,40,movements,el-ex, lt, nd,117607.127854125, -0.7826132827473526, -1.3975264279862227, -1.0161742469985193, 0.17285104095935822, 0.10842430591583252, -0.06774687021970749, -0.12156868726015091, 0.9850262999534607, -0.12224768847227097, 0.0019397586584091187, 5.072355270385742e-05, -0.012334585189819336, -0.6615951690068719, 0.03417582244425371, 0.7377182811323002,-0.12998352752157527,-0.1235504150390625,0.9826507568359375,-0.1273345947265625
20220201-1604,2022-02-01 16:04:29Z,u01, 105,40,movements,el-ex, lt, nd,117607.152801125, -0.7690536360648178, -1.3925173383484348, -1.0042221666583668, 0.20619243383407593, 0.022567596286535263, -0.08409801125526428, -0.12332957983016968, 0.9841503500938416, -0.12742847204208374, 0.021538183093070984, 0.0010792016983032227, -0.019467651844024658, -0.6596517736844217, 0.03384232312406303, 0.7392204994889583,-0.13140528637264978,-0.1017913818359375,0.9852294921875,-0.1468963623046875
20220201-1604,2022-02-01 16:04:29Z,u01, 106,40,movements,el-ex, lt, nd,117607.17774912501, -0.800057240424596, -1.3966556380125765, -1.0351241532990796, -0.2218305617570877, 0.008034458383917809, -0.03901123255491257, -0.12429778277873993, 0.9848757982254028, -0.1207059994339943, -0.012863516807556152, -0.07566547393798828, 0.03112185001373291, -0.6621982322327228, 0.03377132767532583, 0.7369381604688772,-0.13143537358320184,-0.1298980712890625,0.915985107421875,-0.086029052734375
20220201-1604,2022-02-01 16:04:29Z,u01, 107,40,movements,el-ex, lt, nd,117607.20269612501, -0.8362397265559653, -1.4023799131714487, -1.0729172167200898, -0.3082776665687561, 0.06757961213588715, 0.019658274948596954, -0.12439636886119843, 0.9858514666557312, -0.11234945803880692, -0.016655899584293365, -0.0257989764213562, 0.00024337321519851685, -0.6653002955206033, 0.0346523824146614, 0.7340463360131613,-0.13172192899981877,-0.14105224609375,0.960052490234375,-0.1121063232421875
20220201-1604,2022-02-01 16:04:29Z,u01, 108,40,movements,el-ex, lt, nd,117607.22764412501, -0.8317656754228557, -1.403575612171877, -1.0698101517644467, 0.03332807123661041, 0.0018923450261354446, -0.03276538476347923, -0.12302196770906448, 0.9860511422157288, -0.11211159080266953, 0.015233859419822693, 0.028261661529541016, -0.029535531997680664, -0.6653392248546179, 0.035607888898648854, 0.7339638147993136,-0.13173112569874337,-0.1115264892578125,1.0137481689453125,-0.14288330078125
20220201-1604,2022-02-01 16:04:29Z,u01, 109,40,movements,el-ex, lt, nd,117607.252592125, -0.8231664722730262, -1.4017386190799712, -1.0603822052787906, 0.08996312320232391, -0.015265070833265781, 0.005426474846899509, -0.12338080257177353, 0.9857437610626221, -0.1143961027264595, 0.012235775589942932, -0.02306675910949707, 0.012940660119056702, -0.6645073061107374, 0.035099715874972445, 0.7347565788702418,-0.13164663268470111,-0.11114501953125,0.962677001953125,-0.1014556884765625
20220201-1604,2022-02-01 16:04:29Z,u01, 110,40,movements,el-ex, lt, nd,117607.277539125, -0.8304781715999665, -1.4014978004934404, -1.0682038046461193, -0.10459058731794357, 0.06018294394016266, 0.055711884051561356, -0.12438903748989105, 0.9857032299041748, -0.11365091800689697, -0.011627830564975739, -0.04591435194015503, 0.028507180511951447, -0.6647958052497295, 0.0349439287017029, 0.7344112216579053,-0.13215746986757954,-0.133819580078125,0.9351806640625,-0.0730743408203125
20220201-1604,2022-02-01 16:04:29Z,u01, 111,40,movements,el-ex, lt, nd,117607.30248712501, -0.8315803055506175, -1.4039245048689564, -1.0713392132693373, -0.060983650386333466, 0.07508986443281174, 0.029076145961880684, -0.12274590879678726, 0.98610919713974, -0.1119016706943512, -0.012019731104373932, -0.0033669471740722656, -0.0316222682595253, -0.6653814422233059, 0.036286367595573715, 0.7337979613170676,-0.132254692036764,-0.134765625,0.9827423095703125,-0.143524169921875
20220201-1604,2022-02-01 16:04:29Z,u01, 112,40,movements,el-ex, lt, nd,117607.327434125, -0.8132743828040521, -1.4029536516345689, -1.054051692180479, 0.186558336019516, 0.011130783706903458, 0.0004092799499630928, -0.12137289345264435, 0.9859474301338196, -0.11478792130947113, -0.008616767823696136, 0.02189558744430542, -0.017124049365520477, -0.6642578501739095, 0.03698038301034133, 0.7347786305888642,-0.13226617218495296,-0.126220703125,1.010040283203125,-0.139251708984375
20220201-1604,2022-02-01 16:04:29Z,u01, 113,40,movements,el-ex, lt, nd,117607.35238212501, -0.8101399846960349, -1.4018269966568837, -1.0504705069786089, 0.0676971971988678, -0.0070319753140211105, 0.040898647159338, -0.12181682884693146, 0.9857586026191711, -0.11593326181173325, -0.01790793240070343, -0.011576533317565918, 0.00985439121723175, -0.6638465928507893, 0.03662063308014413, 0.7351611131978771,-0.13230538828494293,-0.1397247314453125,0.97418212890625,-0.1060791015625
20220201-1604,2022-02-01 16:04:29Z,u01, 114,40,movements,el-ex, lt, nd,117607.37732912501, -0.8187744285134424, -1.4023799531805385, -1.0591908597950392, -0.1898166388273239, 0.016114089637994766, 0.04783671349287033, -0.12241574376821518, 0.9858514666557312, -0.11450526863336563, -0.006566837430000305, -0.008388638496398926, 0.0050542354583740234, -0.6643906754483387, 0.0365019916333323, 0.7346425358145747,-0.13248799545825368,-0.1324310302734375,0.968719482421875,-0.1103515625
20220201-1604,2022-02-01 16:04:29Z,u01, 115,40,movements,el-ex, lt, nd,117607.402277125, -0.8263944477092541, -1.4045835156005109, -1.0672119153843134, -0.19878749549388885, -0.02255607396364212, 0.028374869376420975, -0.12168696522712708, 0.9862184524536133, -0.11209730803966522, 0.006620392203330994, -0.0005919933319091797, -0.010216906666755676, -0.6652682516517688, 0.037006741460636414, 0.7338603365452722,-0.132279368247705,-0.1150665283203125,0.985626220703125,-0.122314453125
20220201-1604,2022-02-01 16:04:29Z,u01, 116,40,movements,el-ex, lt, nd,117607.42722512501, -0.8477932690487752, -1.4066133787560902, -1.0877202190956567, -0.18299993872642517, -0.045480430126190186, 0.06755942851305008, -0.12255609780550003, 0.9865522384643555, -0.1081428974866867, 0.00806938111782074, -0.007700860500335693, 0.024112999439239502, -0.6667759779001143, 0.036583406857564976, 0.7325453898508111,-0.132093922480517,-0.1083984375,0.97552490234375,-0.0926513671875
20220201-1604,2022-02-01 16:04:29Z,u01, 117,40,movements,el-ex, lt, nd,117607.452172125, -0.8591396989311592, -1.4091709049674552, -1.098574641589519, -0.08960554003715515, 0.014941636472940445, 0.10549268871545792, -0.12186365574598312, 0.9869670271873474, -0.10509683936834335, -0.018227316439151764, -0.009260118007659912, 0.010660476982593536, -0.6679048526955946, 0.036806076495382936, 0.7316040091853948,-0.13154463913502953,-0.1400909423828125,0.9777069091796875,-0.0944366455078125
20220201-1604,2022-02-01 16:04:29Z,u01, 118,40,movements,el-ex, lt, nd,117607.47712012501, -0.8458215466795889, -1.4100794994455976, -1.0865782894643377, 0.03813817352056503, 0.06647859513759613, 0.050912003964185715, -0.11978232860565186, 0.987112820148468, -0.1061161458492279, 0.011811122298240662, 0.009408235549926758, -0.012535929679870605, -0.6674596229766313, 0.037941784726879674, 0.7319890564084081,-0.13133998497326987,-0.11883544921875,0.9944915771484375,-0.118316650390625
20220201-1604,2022-02-01 16:04:29Z,u01, 119,40,movements,el-ex, lt, nd,117607.50206712501, -0.8316600101398497, -1.4105881637756867, -1.0729058234156672, -0.004548937082290649, -0.014321645721793175, 0.04620786011219025, -0.11789600551128387, 0.9871941208839417, -0.10746303200721741, 0.02767074853181839, 0.0004310011863708496, 0.009044118225574493, -0.666910544901745, 0.03871444254717582, 0.7325252629608767,-0.1309130728714168,-0.0902252197265625,0.9876251220703125,-0.098419189453125
20220201-1604,2022-02-01 16:04:29Z,u01, 120,40,movements,el-ex, lt, nd,117607.527015125, -0.8529796113788171, -1.4137678319189015, -1.0933771342330996, -0.13196322321891785, -0.02308717370033264, 0.08259649574756622, -0.11779531836509705, 0.9876963496208191, -0.10286034643650055, -0.004885368049144745, -0.029947876930236816, -0.0017688795924186707, -0.6686357332134291, 0.03867924084863611, 0.7310487601548733,-0.13037602697855738,-0.11871337890625,0.955657958984375,-0.0979461669921875
20220201-1604,2022-02-01 16:04:29Z,u01, 121,40,movements,el-ex, lt, nd,117607.55196200001, -0.8606896033283893, -1.4154308910357698, -1.1006217438759387, -0.098478764295578, -0.014955212362110615, 0.0767708271741867, -0.11733920127153397, 0.9879550337791443, -0.10087818652391434, 0.0057974159717559814, -0.008676409721374512, -0.011700868606567383, -0.6693707973117838, 0.038776832810773265, 0.7304440908008706,-0.1299637072298579,-0.111541748046875,0.979278564453125,-0.112579345703125
20220201-1604,2022-02-01 16:04:29Z,u01, 122,40,movements,el-ex, lt, nd,117607.57691, -0.8480555139845976, -1.419294037288784, -1.0878343927410694, -0.08766090124845505, -0.011341103352606297, 0.07797158509492874, -0.11319180577993393, 0.9885454773902893, -0.0998271107673645, 0.007402606308460236, -0.004200994968414307, 0.003162987530231476, -0.669676361127691, 0.04024940459024047, 0.730359284746715,-0.12840893886437962,-0.1021728515625,0.97576904296875,-0.0977935791015625
20220201-1604,2022-02-01 16:04:29Z,u01, 123,40,movements,el-ex, lt, nd,117607.60185800001, -0.8460716359006664, -1.4220751925169035, -1.0858154107927058, 0.022040095180273056, 0.015317274257540703, 0.09240710735321045, -0.11093567311763763, 0.988961398601532, -0.0982293114066124, -0.008876398205757141, 0.012183189392089844, -0.013022258877754211, -0.6702201696823892, 0.041112891130503995, 0.7299649284873043,-0.1275383932950958,-0.11981201171875,1.0011444091796875,-0.1112518310546875
20220201-1604,2022-02-01 16:04:29Z,u01, 124,40,movements,el-ex, lt, nd,117607.626805, -0.8299411773977933, -1.4214312883138802, -1.0698284312577162, 0.0059456489980220795, -0.012229200452566147, 0.08533209562301636, -0.10980533063411713, 0.9888657927513123, -0.10043442249298096, 0.0025818273425102234, 0.03449535369873047, 0.017823591828346252, -0.6693755776144407, 0.041462326175064845, 0.7307636327206456,-0.12728553289833627,-0.1111297607421875,1.0250701904296875,-0.0828094482421875
20220201-1604,2022-02-01 16:04:29Z,u01, 125,40,movements,el-ex, lt, nd,117607.65175300001, -0.8282352112080208, -1.424092126829242, -1.0676250659179216, -0.1643652319908142, -0.023037107661366463, 0.06109972670674324, -0.10769584029912949, 0.9892582297325134, -0.09884291142225266, 0.0032799243927001953, 0.017394661903381348, 0.013363420963287354, -0.6699288045345345, 0.042118175866424315, 0.7303905576360437,-0.12629795365898877,-0.1044158935546875,1.00665283203125,-0.085479736328125
20220201-1604,2022-02-01 16:04:29Z,u01, 126,40,movements,el-ex, lt, nd,117607.67670000001, -0.8432412375533724, -1.4263475034275541, -1.0825423546023512, -0.06683295220136642, 0.004715427756309509, -0.0011836234480142593, -0.1075003519654274, 0.9895853996276855, -0.09573165327310562, -0.020353078842163086, 0.04825645685195923, -0.027467548847198486, -0.6710774487178509, 0.04229928365618153, 0.7293645302872995,-0.1260685660909606,-0.1270599365234375,1.0327606201171875,-0.1135711669921875
20220201-1604,2022-02-01 16:04:29Z,u01, 127,40,movements,el-ex, lt, nd,117607.701648, -0.8425341965009163, -1.4256190933654482, -1.08222049240001, 0.09870674461126328, 0.020691197365522385, -0.009110788814723492, -0.10797060281038284, 0.9894802570343018, -0.09628739953041077, 0.007537215948104858, 0.04610329866409302, -0.008830130100250244, -0.6708743627976731, 0.04223613272380944, 0.7294981725675111,-0.12639696614606835,-0.100433349609375,1.03558349609375,-0.1051177978515625
20220201-1604,2022-02-01 16:04:30Z,u01, 128,40,movements,el-ex, lt, nd,117607.72659600001, -0.8357963531566384, -1.4247761643067667, -1.0754965351828962, 0.05411934107542038, -0.011702360585331917, -0.007615356706082821, -0.10793852061033249, 0.9893580079078674, -0.09757236391305923, 0.005780890583992004, 0.035575032234191895, 0.021995827555656433, -0.6703980226849515, 0.042193703311320455, 0.7299303409151572,-0.12644387556050077,-0.0923919677734375,1.0299835205078125,-0.06280517578125
20220201-1604,2022-02-01 16:04:30Z,u01, 129,40,movements,el-ex, lt, nd,117607.751543, -0.8358034322614644, -1.423549833791574, -1.0761256679930709, -0.00860856007784605, 0.05816686525940895, -0.07390104234218597, -0.1088394746184349, 0.9891788363456726, -0.09838539361953735, -0.01928861439228058, 0.020510733127593994, -0.010516300797462463, -0.6701041225702774, 0.042044839632845346, 0.730108689171728,-0.12702061710406354,-0.1281280517578125,1.0096893310546875,-0.1089019775390625
20220201-1604,2022-02-01 16:04:30Z,u01, 130,40,movements,el-ex, lt, nd,117607.77649100001, -0.8432735815416217, -1.4220020027525582, -1.0850922227439654, 0.0008271532133221626, 0.042918942868709564, -0.07330875098705292, -0.11071451008319855, 0.9889505505561829, -0.0985875204205513, 0.02460913360118866, -0.0056130290031433105, 0.004166364669799805, -0.670039635544471, 0.04187034118763487, 0.7299659336127834,-0.1282329764938901,-0.0908203125,0.991058349609375,-0.096832275390625
20220201-1604,2022-02-01 16:04:30Z,u01, 131,40,movements,el-ex, lt, nd,117607.80143800001, -0.8500186134673562, -1.422220567836914, -1.0926840539275429, 0.019926512613892555, 0.026401150971651077, -0.03787386044859886, -0.11121408641338348, 0.9889829158782959, -0.09769543260335922, 0.019798673689365387, -0.007354438304901123, 0.00020731240510940552, -0.6703631888404279, 0.04201757856627332, 0.7295815822759898,-0.12867993926170757,-0.0914154052734375,0.98162841796875,-0.0974884033203125
20220201-1604,2022-02-01 16:04:30Z,u01, 132,40,movements,el-ex, lt, nd,117607.826386, -0.8541049524941214, -1.4217460514772446, -1.0975487602573328, -0.011881318874657154, 0.03372117877006531, -0.03142574802041054, -0.1119660809636116, 0.9889125823974609, -0.09754832088947296, -0.007891744375228882, 0.021982252597808838, -0.0063942670822143555, -0.6704180302695855, 0.04201789325182269, 0.7294354328600462,-0.12922143424031143,-0.114959716796875,1.0036773681640625,-0.100067138671875
20220201-1604,2022-02-01 16:04:30Z,u01, 133,40,movements,el-ex, lt, nd,117607.85133300001, -0.8491726300410457, -1.4203012013585208, -1.0935247450445318, 0.08116570115089417, 0.02289123646914959, -0.0443316251039505, -0.11255621910095215, 0.9886969923973083, -0.09904325008392334, 0.01238223910331726, 0.008938014507293701, -0.013200163841247559, -0.6698587578487417, 0.04204305777588156, 0.7298409331645784,-0.12982267304279727,-0.1001739501953125,0.9976348876953125,-0.11224365234375
20220201-1604,2022-02-01 16:04:30Z,u01, 134,40,movements,el-ex, lt, nd,117607.876281, -0.8427494725623854, -1.4219774104850214, -1.0873660995380299, -0.09420967847108841, -0.008558498695492744, -0.030832529067993164, -0.11068086326122284, 0.9889469146728516, -0.09866161644458771, 0.018914461135864258, -0.02465224266052246, 0.011351034045219421, -0.6699522110816277, 0.042816205143226135, 0.7298127208900834,-0.12924539996003134,-0.087158203125,0.966033935546875,-0.0789794921875
20220201-1604,2022-02-01 16:04:30Z,u01, 135,40,movements,el-ex, lt, nd,117607.901228, -0.85427565945775, -1.4239779395210967, -1.0991245824698561, -0.06539977341890335, 0.03059043549001217, 0.008662083186209202, -0.1103183850646019, 0.9892415404319763, -0.09607967734336853, -0.0017727166414260864, -0.016722440719604492, -0.006764307618141174, -0.6708940667011707, 0.04314292565728417, 0.7289545299474438,-0.12909403642220896,-0.112091064453125,0.9725189208984375,-0.10284423828125
20220201-1604,2022-02-01 16:04:30Z,u01, 136,40,movements,el-ex, lt, nd,117607.92617600001, -0.8457202340060834, -1.4230726714015964, -1.0915622728000682, 0.05462360382080078, 0.021415112540125847, -0.003615555353462696, -0.11016230285167694, 0.989108681678772, -0.0976136103272438, 0.005013942718505859, 0.028255879878997803, 0.007403910160064697, -0.6703017422861096, 0.0434599921671419, 0.7294143941951831,-0.12946631412292292,-0.1080322265625,1.01715087890625,-0.0921630859375
20220201-1604,2022-02-01 16:04:30Z,u01, 137,40,movements,el-ex, lt, nd,117607.95112400001, -0.8373710707305493, -1.4240896791340452, -1.0831882346063733, -0.006260417401790619, -0.011302420869469643, -0.015849385410547256, -0.10859626531600952, 0.9892578721046448, -0.09785663336515427, -0.0005041062831878662, 0.0018157958984375, -0.008405327796936035, -0.6701760620601189, 0.04399692175072285, 0.7295947240750038,-0.12891844102608319,-0.109100341796875,0.9910736083984375,-0.10626220703125
20220201-1604,2022-02-01 16:04:30Z,u01, 138,40,movements,el-ex, lt, nd,117607.97607100001, -0.8469422793015409, -1.4247859843648107, -1.0926679083741238, -0.09074331074953079, -0.015704026445746422, -0.0434282124042511, -0.10901106894016266, 0.989359438419342, -0.09635595977306366, -0.0016304254531860352, 0.003056943416595459, -0.01570431888103485, -0.6707427158786425, 0.043888844271534444, 0.7290716465735817,-0.12896695762991406,-0.115814208984375,0.9880828857421875,-0.117645263671875
20220201-1604,2022-02-01 16:04:30Z,u01, 139,40,movements,el-ex, lt, nd,117608.001019, -0.8581688372123033, -1.4244691107618574, -1.103225330881895, -0.015096485614776611, -0.035218872129917145, -0.006285907234996557, -0.11032363027334213, 0.9893132448196411, -0.09533149003982544, 0.015474975109100342, -0.007059156894683838, -0.006322264671325684, -0.6711662103171325, 0.043245477276291064, 0.7286897135187359,-0.12913991722986323,-0.0948486328125,0.9822540283203125,-0.101654052734375
20220201-1604,2022-02-01 16:04:30Z,u01, 140,40,movements,el-ex, lt, nd,117608.025966, -0.8540029850197286, -1.425433410695121, -1.098634690506366, -0.016720183193683624, 0.01491573452949524, 0.04230513051152229, -0.10920681804418564, 0.9894533753395081, -0.09516395628452301, -0.01089516282081604, -0.01755988597869873, 0.015894815325737, -0.6712116717433445, 0.04350761430094903, 0.7287301939084465,-0.12858644233931008,-0.1148223876953125,0.963653564453125,-0.0802001953125
20220201-1604,2022-02-01 16:04:30Z,u01, 141,40,movements,el-ex, lt, nd,117608.050914, -0.8416660649954785, -1.4239475672055306, -1.086929163678173, 0.07568724453449249, 0.021492144092917442, 0.021660305559635162, -0.1091206893324852, 0.9892370700836182, -0.09748323261737823, -0.01552841067314148, 0.014287889003753662, -0.009083941578865051, -0.6703385251773053, 0.04364224239784567, 0.7294728251529876,-0.12888439135942834,-0.1246490478515625,1.0035247802734375,-0.1065673828125
20220201-1604,2022-02-01 16:04:30Z,u01, 142,40,movements,el-ex, lt, nd,117608.075861, -0.8238813103985927, -1.4227274428234367, -1.0688136826281156, 0.040617577731609344, -0.04682505875825882, -0.005243413150310516, -0.10825517028570175, 0.9890578389167786, -0.10022811591625214, 0.012872442603111267, 0.006456196308135986, -0.0008916258811950684, -0.6693095447383794, 0.043711276481872535, 0.7304672176210469,-0.12857614354092023,-0.0983734130859375,1.0014801025390625,-0.107025146484375
20220201-1604,2022-02-01 16:04:30Z,u01, 143,40,movements,el-ex, lt, nd,117608.10080900001, -0.8268259821236781, -1.4236676112901787, -1.0706580833579784, 0.0078056007623672485, -0.009883222170174122, 0.011251209303736687, -0.10786572843790054, 0.9891960620880127, -0.0992792546749115, -0.0046678632497787476, -0.00762861967086792, -0.0022524595260620117, -0.669675973505625, 0.04352545084051865, 0.7302440239306892,-0.1279978200318227,-0.1125335693359375,0.9815673828125,-0.101531982421875
20220201-1604,2022-02-01 16:04:30Z,u01, 144,40,movements,el-ex, lt, nd,117608.125757, -0.8322564817803899, -1.4225196893979457, -1.0762018183634607, 0.05176423490047455, 0.021808594465255737, 0.01209802646189928, -0.10924207419157028, 0.9890271425247192, -0.09945568442344666, 0.011494264006614685, -0.0015240907669067383, 0.02377237379550934, -0.669639807588957, 0.04306604847625811, 0.7302109551701599,-0.12852930482481711,-0.102447509765625,0.9897613525390625,-0.0777435302734375
20220201-1604,2022-02-01 16:04:30Z,u01, 145,40,movements,el-ex, lt, nd,117608.15070400001, -0.8214476168329495, -1.4216397957231326, -1.0657997208846322, 0.04579179733991623, 0.011866148561239243, 0.010710720904171467, -0.10879784822463989, 0.9888967871665955, -0.1012234166264534, 0.010775364935398102, -0.000798642635345459, 0.0208098366856575, -0.6689658519241547, 0.04327796300562979, 0.7308041095196445,-0.12859645434992903,-0.0980224609375,0.98809814453125,-0.080413818359375
20220201-1604,2022-02-01 16:04:30Z,u01, 146,40,movements,el-ex, lt, nd,117608.175652, -0.8083425392332331, -1.4209995308406849, -1.0530619107020407, 0.10175230354070663, 0.02652904950082302, 0.01218644343316555, -0.10791969299316406, 0.9888014197349548, -0.10307764261960983, -0.006216078996658325, -0.005509853363037109, -0.002543434500694275, -0.6682498827069402, 0.04362651086377181, 0.7314549259946771,-0.1285008442129864,-0.1138763427734375,0.983856201171875,-0.10272216796875
20220201-1604,2022-02-01 16:04:30Z,u01, 147,40,movements,el-ex, lt, nd,117608.200599, -0.7997139967476897, -1.420565095409136, -1.0446352184085588, 0.08987380564212799, 3.831833600997925e-05, 0.04617477208375931, -0.10733430087566376, 0.9887365102767944, -0.10430430620908737, -5.708634853363037e-05, -0.007779538631439209, 0.005076661705970764, -0.66777652385126, 0.04384473170076479, 0.7318880538557275,-0.12842108247899753,-0.107391357421875,0.98095703125,-0.0992279052734375
20220201-1604,2022-02-01 16:04:30Z,u01, 148,40,movements,el-ex, lt, nd,117608.22554700001, -0.79296045072837, -1.4224536363414988, -1.0375952172125382, 0.09601851552724838, 0.012929350137710571, 0.0386689156293869, -0.10529682785272598, 0.9890173673629761, -0.103716179728508, -0.018268868327140808, -4.953145980834961e-05, -0.003598615527153015, -0.667953300044581, 0.04450054088669671, 0.7318347681477787,-0.1275769685109598,-0.1200408935546875,0.9833831787109375,-0.106781005859375
20220201-1604,2022-02-01 16:04:30Z,u01, 149,40,movements,el-ex, lt, nd,117608.250495, -0.77832010948558, -1.4214183826716031, -1.0232590818837595, 0.13745632767677307, 0.01607048138976097, 0.03326929360628128, -0.10448645800352097, 0.9888638257980347, -0.1059761494398117, -0.011495620012283325, 0.013959109783172607, -0.010280311107635498, -0.6670879088049767, 0.044784441046968354, 0.732619994596818,-0.12749924905565874,-0.1159820556640625,1.0028228759765625,-0.1162567138671875
20220201-1604,2022-02-01 16:04:30Z,u01, 150,40,movements,el-ex, lt, nd,117608.27544200001, -0.7696730596355194, -1.4199967373494005, -1.014484331813768, 0.010494659654796124, -0.009484145790338516, 0.042687561362981796, -0.1045442745089531, 0.9886512756347656, -0.10788502544164658, 0.005285829305648804, -0.0026587843894958496, 0.008047044277191162, -0.6663823727473285, 0.04463206034070727, 0.7332617126323426,-0.1275530729357025,-0.0938873291015625,0.9866180419921875,-0.106597900390625
20220201-1604,2022-02-01 16:04:30Z,u01, 151,40,movements,el-ex, lt, nd,117608.30039, -0.7688899552230815, -1.4204296555150626, -1.0138820307550385, 0.03030262142419815, 0.04392135143280029, 0.02946583367884159, -0.10416212677955627, 0.9887162446975708, -0.1076592355966568, -0.01899159699678421, 0.0017164945602416992, -0.004523150622844696, -0.6664532088579986, 0.0448386488113825, 0.7331981569121113,-0.12747583049740835,-0.1231536865234375,0.9904327392578125,-0.1121826171875
20220201-1604,2022-02-01 16:04:30Z,u01, 152,40,movements,el-ex, lt, nd,117608.325337, -0.7589521783837975, -1.4171802865202319, -1.0048311985327179, 0.20466233789920807, 0.027152827009558678, -0.013239752501249313, -0.1052975133061409, 0.9882242679595947, -0.111019566655159, 0.011303342878818512, 0.03387051820755005, -0.030001871287822723, -0.6652093590692862, 0.044572686765913916, 0.7341923366893075,-0.1283410731946314,-0.1013031005859375,1.0226593017578125,-0.13946533203125
20220201-1604,2022-02-01 16:04:30Z,u01, 153,40,movements,el-ex, lt, nd,117608.35028500001, -0.7289147783683201, -1.4128164770174774, -0.9743715305449289, 0.2341439574956894, -0.027503693476319313, 0.02213801071047783, -0.104787677526474, 0.9875470995903015, -0.11734800785779953, 0.02640324831008911, 0.014467239379882812, 0.011513277888298035, -0.6628440019650895, 0.04431504925777237, 0.7363559128432956,-0.1282737505460334,-0.0783843994140625,1.00201416015625,-0.1058349609375
20220201-1604,2022-02-01 16:04:30Z,u01, 154,40,movements,el-ex, lt, nd,117608.375232, -0.7159789509665591, -1.4107436455920959, -0.9608074103436013, 0.06392539292573929, 0.023658625781536102, 0.05571094900369644, -0.10460373014211655, 0.9872189164161682, -0.12023712694644928, -0.002772398293018341, -0.018011093139648438, 0.02857787162065506, -0.6617720721289888, 0.044035925407158075, 0.7373663804643945,-0.1280992029835333,-0.105865478515625,0.96563720703125,-0.091094970703125
20220201-1604,2022-02-01 16:04:30Z,u01, 155,40,movements,el-ex, lt, nd,117608.40018000001, -0.7094560220685717, -1.4104002761277858, -0.9550146869718769, 0.047059230506420135, 0.04314504191279411, 0.018709857016801834, -0.10403832793235779, 0.9871640801429749, -0.12117442488670349, -0.0014762431383132935, 0.005603313446044922, 0.0061081647872924805, -0.6613912629285763, 0.044434054847901694, 0.7376650031466481,-0.12820945341576756,-0.1055145263671875,0.992767333984375,-0.1150665283203125
20220201-1604,2022-02-01 16:04:30Z,u01, 156,40,movements,el-ex, lt, nd,117608.425128, -0.6862240217335334, -1.4094773010305686, -0.9324741447483715, 0.19861340522766113, 0.0045905932784080505, -0.01293395645916462, -0.10177282989025116, 0.9870162606239319, -0.12426357716321945, 0.012325763702392578, 0.02314615249633789, -0.01495736837387085, -0.6601622760181427, 0.04532084815593898, 0.7387822044592397,-0.1277998661812484,-0.0951080322265625,1.0158538818359375,-0.14447021484375
20220201-1604,2022-02-01 16:04:30Z,u01, 157,40,movements,el-ex, lt, nd,117608.450075, -0.673914611767056, -1.4073756210804358, -0.9194062798274524, 0.1666070967912674, -0.013614310882985592, 0.02000262215733528, -0.10152941942214966, 0.9866765141487122, -0.12712697684764862, 0.010449685156345367, -0.002209961414337158, 0.00778825581073761, -0.6590975820462398, 0.04502096634352751, 0.7397927835865079,-0.12755454888343265,-0.0910797119140625,0.984466552734375,-0.1193389892578125
20220201-1604,2022-02-01 16:04:30Z,u01, 158,40,movements,el-ex, lt, nd,117608.475023, -0.6778554628625842, -1.4078823545269363, -0.9234512329973179, -0.01708533614873886, 0.03267868608236313, -0.0011326908133924007, -0.10171624273061752, 0.986758828163147, -0.12633664906024933, 0.0027171969413757324, -0.0024142861366271973, -0.0007993578910827637, -0.6593969150764811, 0.045026464542798184, 0.7395134707006829,-0.12762540266328048,-0.103179931640625,0.9815216064453125,-0.1196441650390625
20220201-1604,2022-02-01 16:04:30Z,u01, 159,40,movements,el-ex, lt, nd,117608.49997, -0.6762425023091393, -1.407283421770507, -0.922282632833475, 0.03650958463549614, -0.015672601759433746, -0.0027361796237528324, -0.10188210010528564, 0.9866614937782288, -0.126961350440979, 0.027464941143989563, 0.009890079498291016, -0.025397419929504395, -0.6591560798912339, 0.045084263786346154, 0.7396816363801102,-0.12787419365943845,-0.0744171142578125,0.996551513671875,-0.1523590087890625
20220201-1604,2022-02-01 16:04:30Z,u01, 160,40,movements,el-ex, lt, nd,117608.52491800001, -0.653336620403588, -1.404837262129423, -0.8982059224062733, 0.36091920733451843, -0.02608775720000267, 0.015593758784234524, -0.10041455179452896, 0.9862603545188904, -0.131178081035614, -0.004047170281410217, 0.023963212966918945, -0.02342374622821808, -0.6575592748864191, 0.04501951531622482, 0.7412382574293704,-0.12710255630617145,-0.089874267578125,1.0068359375,-0.145599365234375
20220201-1604,2022-02-01 16:04:30Z,u01, 161,40,movements,el-ex, lt, nd,117608.5498645, -0.6056407800766644, -1.3937106369014773, -0.8507543599851347, 0.8097851872444153, 0.0977647453546524, -0.0024725268594920635, -0.10028715431690216, 0.9843612909317017, -0.14482946693897247, -0.024987533688545227, 0.03182840347290039, -0.02506166696548462, -0.6523846766346373, 0.044491543984264664, 0.7457229320360682,-0.12771903362910275,-0.125274658203125,1.0161895751953125,-0.169891357421875
20220201-1604,2022-02-01 16:04:30Z,u01, 162,40,movements,el-ex, lt, nd,117608.57481250001, -0.5373637900388842, -1.3747527727213784, -0.7839087707017541, 1.0171875953674316, 0.0867331326007843, -0.0036578993313014507, -0.09970815479755402, 0.9808449149131775, -0.16733716428279877, 0.013846918940544128, 0.029058098793029785, -0.019323348999023438, -0.6437310266930506, 0.04406565465318553, 0.7530138049459985,-0.12899195634458527,-0.087066650390625,1.0146636962890625,-0.1807708740234375
20220201-1604,2022-02-01 16:04:30Z,u01, 163,40,movements,el-ex, lt, nd,117608.5997605, -0.47462051522644255, -1.3519083141321406, -0.7221973453371444, 1.051965355873108, 0.11701273918151855, 0.013622820377349854, -0.09923534095287323, 0.976139485836029, -0.19314289093017578, -0.009819254279136658, 0.009471535682678223, -0.007052183151245117, -0.6336841554724789, 0.04327753150758146, 0.7613113619433642,-0.1302941644264709,-0.1090545654296875,0.9856109619140625,-0.2001953125
20220201-1604,2022-02-01 16:04:30Z,u01, 164,40,movements,el-ex, lt, nd,117608.62470750001, -0.42271366285135575, -1.3289428739484477, -0.6722237363717029, 0.9950680732727051, 0.12868452072143555, 0.02398005500435829, -0.09825277328491211, 0.9708957076072693, -0.2184213548898697, -0.012739680707454681, 0.008413374423980713, -0.009376868605613708, -0.6236547307116111, 0.0429430002230473, 0.7693204657330637,-0.13174487400129295,-0.11492919921875,0.9777069091796875,-0.2187652587890625
20220201-1604,2022-02-01 16:04:30Z,u01, 165,40,movements,el-ex, lt, nd,117608.6496555, -0.3801942409460097, -1.30621221301686, -0.630856435915739, 1.0081154108047485, 0.07416974008083344, 0.03289085626602173, -0.09704577922821045, 0.9652013182640076, -0.24283424019813538, -0.0062715038657188416, 0.012200415134429932, -0.02221064269542694, -0.6138248114458176, 0.0424497443307081, 0.7770358806723514,-0.13278685383661526,-0.1033172607421875,0.9774017333984375,-0.265045166015625
20220201-1604,2022-02-01 16:04:30Z,u01, 166,40,movements,el-ex, lt, nd,117608.6746025, -0.3397088280230879, -1.2804364662705632, -0.5904629761227127, 1.2747639417648315, 0.07810262590646744, 0.06982564181089401, -0.09539780765771866, 0.9581409096717834, -0.2699357569217682, -0.01995866745710373, 0.026997089385986328, -0.03771170973777771, -0.602744178554487, 0.04161227977256658, 0.7856077508220973,-0.13337305407467565,-0.1129913330078125,0.98486328125,-0.3001861572265625
20220201-1604,2022-02-01 16:04:30Z,u01, 167,40,movements,el-ex, lt, nd,117608.69955050001, -0.29670089987500825, -1.2474874318101044, -0.5482279273558728, 1.503684401512146, 0.1313142478466034, 0.07452885061502457, -0.09288658946752548, 0.948189377784729, -0.303823858499527, -0.021279700100421906, 0.04264014959335327, -0.020959168672561646, -0.5885722851397883, 0.0408745936328995, 0.7961796544320542,-0.1342007054648455,-0.114166259765625,0.9908294677734375,-0.3247833251953125
20220201-1604,2022-02-01 16:04:31Z,u01, 168,40,movements,el-ex, lt, nd,117608.7244975, -0.2601652975807672, -1.2113272922973568, -0.5130167435756181, 1.5211760997772217, 0.13066083192825317, 0.029957517981529236, -0.09049133211374283, 0.9360837340354919, -0.3399392366409302, 0.0014715194702148438, 0.021863162517547607, -0.009578347206115723, -0.5730841173505968, 0.0400621089960415, 0.8072430357880773,-0.13538243712261677,-0.0940093994140625,0.969268798828125,-0.348358154296875
20220201-1604,2022-02-01 16:04:31Z,u01, 169,40,movements,el-ex, lt, nd,117608.74944550001, -0.23060481757827567, -1.175003865236172, -0.4846413930922832, 1.57353675365448, 0.13764585554599762, 0.08713085949420929, -0.0881214290857315, 0.9226913452148438, -0.37533390522003174, 0.0030231326818466187, 0.0119858980178833, 0.020902931690216064, -0.5574938907172743, 0.03916129837295014, 0.8179471186340581,-0.13649044064877844,-0.0850982666015625,0.9346771240234375,-0.35443115234375
20220201-1604,2022-02-01 16:04:31Z,u01, 170,40,movements,el-ex, lt, nd,117608.7743935, -0.20056735848035853, -1.1335001162767762, -0.4561240888003489, 1.881181001663208, 0.18384164571762085, 0.08888036012649536, -0.08437032252550125, 0.9059000015258789, -0.4150024354457855, -0.00919659435749054, 0.04565352201461792, -0.014822185039520264, -0.5394594213063768, 0.03850074821189628, 0.8298290693152836,-0.13742312604790916,-0.094268798828125,0.9500885009765625,-0.415374755859375
20220201-1604,2022-02-01 16:04:31Z,u01, 171,40,movements,el-ex, lt, nd,117608.7993405, -0.1737264843936505, -1.084387997213609, -0.43180852947438814, 2.093179941177368, 0.19627507030963898, 0.037041328847408295, -0.08080124855041504, 0.8840174674987793, -0.4604175388813019, -0.0013521015644073486, 0.057251572608947754, -0.006501197814941406, -0.5180557080188893, 0.03754344940820814, 0.8431274017023831,-0.13908645928742902,-0.0821533203125,0.9412689208984375,-0.4669189453125
20220201-1604,2022-02-01 16:04:31Z,u01, 172,40,movements,el-ex, lt, nd,117608.8242885, -0.15244687559121156, -1.0302241928681544, -0.4126508340124184, 2.3779938220977783, 0.200347900390625, 0.01640615612268448, -0.0781497210264206, 0.8574143648147583, -0.5086583495140076, -0.0028287097811698914, 0.0170670747756958, 0.014563679695129395, -0.4943597121133845, 0.035767136121733295, 0.856992192865975,-0.14104510386961266,-0.0797271728515625,0.8861541748046875,-0.4926910400390625
20220201-1604,2022-02-01 16:04:31Z,u01, 173,40,movements,el-ex, lt, nd,117608.8492355, -0.13205118217376247, -0.9675122382560499, -0.39531791292858665, 2.6596643924713135, 0.2586365342140198, -0.011075534857809544, -0.07470168173313141, 0.8234768509864807, -0.5624105334281921, 0.005564078688621521, 0.05404102802276611, 0.017366766929626465, -0.4665273914565959, 0.03386648226181248, 0.8721521487144879,-0.14337328852207581,-0.0691375732421875,0.8775177001953125,-0.5450439453125
20220201-1604,2022-02-01 16:04:31Z,u01, 174,40,movements,el-ex, lt, nd,117608.87418350001, -0.11523127535271778, -0.9008524338661099, -0.3826215266233877, 2.6421656608581543, 0.24304988980293274, -0.03449743986129761, -0.0713937059044838, 0.7838565111160278, -0.6168241500854492, 0.02018517255783081, 0.04425334930419922, 0.033724963665008545, -0.43655468960004484, 0.031747830010427344, 0.8871374443576697,-0.14628532155995538,-0.05029296875,0.8369903564453125,-0.5726470947265625
20220201-1604,2022-02-01 16:04:31Z,u01, 175,40,movements,el-ex, lt, nd,117608.89913050001, -0.10299110428148225, -0.8383172385109687, -0.3737244015298457, 2.3990182876586914, 0.2200651466846466, -0.061771735548973083, -0.06875000149011612, 0.7435188889503479, -0.6651715040206909, -0.0035004019737243652, 0.022457242012023926, 0.04259788990020752, -0.408111633651028, 0.029310963190380693, 0.9002328047050594,-0.1488849789603264,-0.0722503662109375,0.7659759521484375,-0.6225738525390625
20220201-1604,2022-02-01 16:04:31Z,u01, 176,40,movements,el-ex, lt, nd,117608.9240785, -0.09285874009383599, -0.7827926832910124, -0.36761337800221916, 2.048372268676758, 0.22479146718978882, -0.018205616623163223, -0.06573733687400818, 0.7052620053291321, -0.7058924436569214, 0.005068361759185791, -0.047363877296447754, 0.04587370157241821, -0.38249081167654325, 0.027469033116017637, 0.9110630334384975,-0.15136230282281843,-0.0618743896484375,0.6687774658203125,-0.6533203125
20220201-1604,2022-02-01 16:04:31Z,u01, 177,40,movements,el-ex, lt, nd,117608.94902550001, -0.08250552483720894, -0.7329180821328624, -0.360747939157054, 2.0020344257354736, 0.21794600784778595, 0.031187165528535843, -0.06125064939260483, 0.6690412759780884, -0.7406971454620361, -0.0017987042665481567, -0.021458089351654053, 0.046117186546325684, -0.35910618202972944, 0.02634744203632681, 0.9203255414518401,-0.1528059141802125,-0.06304931640625,0.6475830078125,-0.694580078125
20220201-1604,2022-02-01 16:04:31Z,u01, 178,40,movements,el-ex, lt, nd,117608.9739735, -0.07409974259625411, -0.6832880925853527, -0.3564037003666309, 1.9074684381484985, 0.22890551388263702, -0.07077401876449585, -0.05741184949874878, 0.6313463449478149, -0.7733728885650635, -0.0020211786031723022, 0.035966455936431885, 0.0332455039024353, -0.3356911479825249, 0.02499998307794956, 0.928847845819147,-0.15468714596169042,-0.0620880126953125,0.6737060546875,-0.74334716796875
20220201-1604,2022-02-01 16:04:31Z,u01, 179,40,movements,el-ex, lt, nd,117608.99892150001, -0.06813277166650024, -0.6430546778383256, -0.35539501436722754, 1.254255771636963, 0.19372622668743134, -0.07868839800357819, -0.05448228865861893, 0.599642813205719, -0.7984110713005066, 0.007393628358840942, 0.003964543342590332, 0.08475762605667114, -0.31657132074322997, 0.024022256637694, 0.9351749374366976,-0.15701408553922896,-0.047088623046875,0.603607177734375,-0.713653564453125
20220201-1604,2022-02-01 16:04:31Z,u01, 180,40,movements,el-ex, lt, nd,117609.02386850001, -0.06387718540816396, -0.6182600015210805, -0.35555306251455154, 0.8894256353378296, 0.16417145729064941, -0.05958854407072067, -0.052017372101545334, 0.5796181559562683, -0.8132262825965881, 0.0016633346676826477, -0.029126644134521484, 0.021753013134002686, -0.30466185550847485, 0.023833027142895008, 0.9388248303076162,-0.15881123205050052,-0.044830322265625,0.549072265625,-0.7763824462890625
20220201-1604,2022-02-01 16:04:31Z,u01, 181,40,movements,el-ex, lt, nd,117609.04881650001, -0.05984593449600564, -0.5899911646173289, -0.35566173979852184, 1.4514731168746948, 0.1705220341682434, -0.09926804155111313, -0.04969903826713562, 0.5563536882400513, -0.8294580578804016, -0.01992686837911606, 0.05758392810821533, -0.026559889316558838, -0.2910863375569044, 0.023231980977379607, 0.9428315865755665,-0.16061682989848072,-0.0696258544921875,0.6139373779296875,-0.85601806640625
20220201-1604,2022-02-01 16:04:31Z,u01, 182,40,movements,el-ex, lt, nd,117609.07376350001, -0.055790010999779406, -0.5442989758863258, -0.35625867320433596, 2.1144580841064453, 0.16260665655136108, -0.1397685408592224, -0.04770306870341301, 0.5178185105323792, -0.8541594743728638, -0.00014854222536087036, 0.08122646808624268, -0.0007140636444091797, -0.26920635469132914, 0.021170481028680237, 0.948914273461134,-0.16322239827068744,-0.0506439208984375,0.613128662109375,-0.8636016845703125
20220201-1604,2022-02-01 16:04:31Z,u01, 183,40,movements,el-ex, lt, nd,117609.0987115, -0.051559713553628844, -0.49153719616703556, -0.3566188755436761, 2.041303873062134, 0.18915751576423645, -0.09870665520429611, -0.0454353392124176, 0.47198164463043213, -0.8804368376731873, -0.02510608732700348, 0.039996713399887085, 0.05339527130126953, -0.24379932525276868, 0.018533147167041214, 0.9553672864427417,-0.16580698964652066,-0.0705413818359375,0.5119781494140625,-0.8270416259765625
20220201-1604,2022-02-01 16:04:31Z,u01, 184,40,movements,el-ex, lt, nd,117609.1236585, -0.045178129947506, -0.43964699615282715, -0.35714199894178467, 2.156649351119995, 0.2552998661994934, -0.14726081490516663, -0.040867872536182404, 0.42562004923820496, -0.9039786458015442, -0.017634373158216476, 0.0037929415702819824, -0.0030036568641662598, -0.21845065875243383, 0.017029150166023382, 0.9610469221884287,-0.1684579433558931,-0.0794830322265625,0.4232330322265625,-0.901702880859375
20220201-1604,2022-02-01 16:04:31Z,u01, 185,40,movements,el-ex, lt, nd,117609.1486065, -0.040652144767456634, -0.38306801625298187, -0.35905278366672105, 2.322542190551758, 0.18487489223480225, -0.1719433069229126, -0.03769538551568985, 0.3737678825855255, -0.926755964756012, 0.02976077049970627, 0.0684930682182312, 0.0021650195121765137, -0.1908297718647956, 0.014352918460440196, 0.9664270702507052,-0.17145512210471187,-0.0079345703125,0.4422607421875,-0.924591064453125
20220201-1604,2022-02-01 16:04:31Z,u01, 186,40,movements,el-ex, lt, nd,117609.17355450001, -0.03661521069146355, -0.32859347393673555, -0.36096361592468684, 1.8917157649993896, 0.22173023223876953, -0.13911786675453186, -0.03464845195412636, 0.3227120637893677, -0.9458627700805664, -0.009327422827482224, -0.03482431173324585, 0.05703842639923096, -0.16411682981781445, 0.011587713844363676, 0.9708845122301737,-0.17411107195871403,-0.0362701416015625,0.31689453125,-0.9020233154296875
20220201-1604,2022-02-01 16:04:31Z,u01, 187,40,movements,el-ex, lt, nd,117609.19850150001, -0.03207866991578233, -0.2908652869379287, -0.3626609063388392, 1.1918805837631226, 0.16584625840187073, -0.09603343904018402, -0.03072596900165081, 0.28678128123283386, -0.9575031995773315, 0.00463339127600193, -0.052329808473587036, 0.058852195739746094, -0.14538800741355976, 0.010522219977516734, 0.9735150032555508,-0.17612542067067474,-0.026092529296875,0.2344512939453125,-0.898651123046875
20220201-1604,2022-02-01 16:04:31Z,u01, 188,40,movements,el-ex, lt, nd,117609.2234495, -0.02912356441410799, -0.2619934629908482, -0.36406090220518533, 1.2169581651687622, 0.08823408931493759, -0.0968853160738945, -0.028125762939453125, 0.2590065002441406, -0.9654660224914551, 0.027805285528302193, 0.0170099139213562, -0.011660993099212646, -0.1310640421729294, 0.00944565850687695, 0.9752929215856118,-0.17758620287087498,0.0003662109375,0.26727294921875,-0.9702911376953125
20220201-1604,2022-02-01 16:04:31Z,u01, 189,40,movements,el-ex, lt, nd,117609.24839650001, -0.02692612079399575, -0.22431929081187413, -0.3655977375025155, 1.8523311614990234, 0.10592540353536606, -0.09395776689052582, -0.02624833583831787, 0.22244276106357574, -0.9745923280715942, 0.01434643380343914, 0.06910711526870728, -0.03219771385192871, -0.11248175004624703, 0.007188926847434031, 0.9773455609318188,-0.17914224581203883,-0.01190185546875,0.2915496826171875,-1.0067901611328125
20220201-1604,2022-02-01 16:04:31Z,u01, 190,40,movements,el-ex, lt, nd,117609.2733445, -0.023842289639154465, -0.17249337381932645, -0.3672838345455009, 2.1821656227111816, 0.17335470020771027, -0.12978880107402802, -0.023486241698265076, 0.17163924872875214, -0.9848798513412476, 0.0003538690507411957, 0.056189924478530884, 0.048570096492767334, -0.0868541528027198, 0.004052146266882125, 0.9796486257382403,-0.18091017911402654,-0.01947021484375,0.245574951171875,-0.9536895751953125
20220201-1604,2022-02-01 16:04:31Z,u01, 191,40,movements,el-ex, lt, nd,117609.2982915, -0.019785683497227497, -0.1214565891021211, -0.3693993099649163, 1.8325002193450928, 0.20321966707706451, -0.12956136465072632, -0.01963864453136921, 0.12115819752216339, -0.9924389123916626, -0.01458686776459217, 0.03837265074253082, 0.05944031476974487, -0.06146923828972516, 0.0014389345421692464, 0.9812417689289685,-0.1827135910588241,-0.0342254638671875,0.1595306396484375,-0.9329986572265625
20220201-1604,2022-02-01 16:04:31Z,u01, 192,40,movements,el-ex, lt, nd,117609.32323950001, -0.015441036279718379, -0.07917373364244408, -0.3713439001718782, 1.5667614936828613, 0.1526755392551422, -0.12128426134586334, -0.015392053872346878, 0.07909104228019714, -0.9967485666275024, 0.005534827709197998, 0.009425386786460876, 0.003157317638397217, -0.04031927447714058, -0.00027591588455532726, 0.982069587421343,-0.18415654766557268,-0.010223388671875,0.08990478515625,-0.976287841796875
20220201-1604,2022-02-01 16:04:31Z,u01, 194,40,movements,el-ex, lt, nd,117609.34818750001, -0.012441053946056777, -0.03954911758947418, -0.37393495758452516, 1.6255650520324707, 0.09816049039363861, -0.1339578479528427, -0.012431005015969276, 0.03953880816698074, -0.9991406798362732, 0.020609665662050247, 0.048718228936195374, 0.006663322448730469, -0.020584333086023334, -0.00243549793550171, 0.982384178266114,-0.1857192917629004,0.0081787109375,0.0882568359375,-0.9924774169921875
20220201-1604,2022-02-01 16:04:31Z,u01, 195,40,movements,el-ex, lt, nd,117609.3980825, -0.004555987389268213, 0.07936331501222232, -0.38134223673633505, 2.6750223636627197, 0.32642555236816406, -0.26271963119506836, -0.004541631322354078, -0.07928002625703812, -0.9968420267105103, -0.05986576899886131, 0.13015303015708923, 0.051178574562072754, 0.03852081033336073, -0.009753337826739457, 0.981084684358521,-0.1894569379123104,-0.00653076171875,0.06939697265625,-0.9443206787109375
20220201-1604,2022-02-01 16:04:31Z,u01, 195,40,movements,el-ex, lt, nd,117609.37313450001, -0.010142853750336639, 0.011430252036816281, -0.37615172882353526, 2.536073684692383, 0.10459548234939575, -0.1278107464313507, -0.010142017155885696, -0.011430002748966217, -0.999883234500885, -0.010472658090293407, 0.08070510625839233, 0.06583172082901001, 0.004666061182601037, -0.0060504250864213864, 0.9823317937962314,-0.18699203842610748,-0.0644073486328125,0.050872802734375,-0.9456634521484375
20220201-1604,2022-02-01 16:04:31Z,u01, 196,40,movements,el-ex, lt, nd,117609.4230295, 0.0036271101116974115, 0.13402331080695412, -0.3869234832195606, 1.616071343421936, 0.20647497475147247, -0.1545715183019638, 0.003594575449824333, -0.1336224377155304, -0.9910258054733276, 0.03163791820406914, -0.07362222671508789, 0.07514750957489014, 0.06606009317857929, -0.011098083497005123, 0.9791637839653377,-0.19170619570540992,0.019012451171875,-0.1760101318359375,-0.9131622314453125
20220201-1604,2022-02-01 16:04:31Z,u01, 197,40,movements,el-ex, lt, nd,117609.4479775, 0.0059203974970517175, 0.16621322827150203, -0.38920888908919204, 1.1033365726470947, -0.016161290928721428, -0.03581636771559715, 0.005838770419359207, -0.16544896364212036, -0.9862010478973389, 0.06276468932628632, -0.03369331359863281, 0.015009641647338867, 0.08201419083735549, -0.013158170578033984, 0.9777812606933584,-0.19246910489326494,0.068603515625,-0.1991424560546875,-0.97119140625
20220201-1604,2022-02-01 16:04:31Z,u01, 198,40,movements,el-ex, lt, nd,117609.4729245, 0.00580767114374109, 0.19126302128107764, -0.389782543913349, 0.8395836353302002, 0.03139650821685791, -0.0005951309576630592, 0.005701735615730286, -0.19009903073310852, -0.9817483425140381, 0.014363519847393036, 0.020040005445480347, 0.059293508529663086, 0.09423753856126522, -0.01565585181767002, 0.9766355768683234,-0.19250216012373866,0.03021240234375,-0.152313232421875,-0.9520721435546875
20220201-1604,2022-02-01 16:04:31Z,u01, 199,40,movements,el-ex, lt, nd,117609.49787250001, 0.006556448176448506, 0.20799768280357825, -0.3900895336968788, 0.5284972786903381, 0.019209150224924088, -0.03620552271604538, 0.0064150867983698845, -0.20650115609169006, -0.9784253239631653, -0.014654882252216339, -0.033488884568214417, 0.09782534837722778, 0.10247446797789321, -0.016920952855254072, 0.9757992207259107,-0.19242838185989863,-0.00823974609375,-0.239990234375,-0.8805999755859375
20220201-1604,2022-02-01 16:04:31Z,u01, 200,40,movements,el-ex, lt, nd,117609.52281950001, 0.007242906039189842, 0.22081761675984568, -0.39110482020311427, 0.5519484877586365, 0.030461736023426056, -0.009835501201450825, 0.007066977210342884, -0.21902745962142944, -0.9756931066513062, -0.0022452552802860737, 0.07121576368808746, 0.018387198448181152, 0.10878324492741119, -0.01787887044750476, 0.9750388336578805,-0.1927326356730515,0.0044403076171875,-0.1363372802734375,-0.9370880126953125
20220201-1604,2022-02-01 16:04:31Z,u01, 201,40,movements,el-ex, lt, nd,117609.5477675, 0.008687297434773162, 0.2331607465088665, -0.39100415079473877, 0.23083901405334473, 0.046558085829019547, 0.023946363478899002, 0.008452121168375015, -0.23105388879776, -0.9729042649269104, -0.03222537040710449, -0.053751230239868164, 0.012729644775390625, 0.11493766223558353, -0.01836334729485011, 0.9743807695450926,-0.1924430392664505,-0.023773193359375,-0.2848052978515625,-0.960174560546875
20220201-1604,2022-02-01 16:04:31Z,u01, 202,40,movements,el-ex, lt, nd,117609.57271525, 0.008398303394278914, 0.22971221991137622, -0.3893258341339644, -0.4495481550693512, -0.023973872885107994, 0.09890422970056534, 0.008177599869668484, -0.22769731283187866, -0.9736976027488708, -0.0003498941659927368, -0.07166469097137451, 0.00496286153793335, 0.11324513395795417, -0.018075586877653226, 0.9747332049133524,-0.19168748480777978,0.00628662109375,-0.3059539794921875,-0.963623046875
20220201-1604,2022-02-01 16:04:31Z,u01, 203,40,movements,el-ex, lt, nd,117609.59766225, 0.007172561852394841, 0.218669864392544, -0.38637802800558924, -0.30354541540145874, -0.021452859044075012, 0.11839224398136139, 0.007001700811088085, -0.21693135797977448, -0.976161777973175, -0.01058756560087204, -0.0161312073469162, -0.03674721717834473, 0.10777103681333537, -0.01745068704124793, 0.9756058724423949,-0.19045787882836487,-0.0035858154296875,-0.233062744140625,-1.012908935546875
20220201-1604,2022-02-01 16:04:31Z,u01, 204,40,movements,el-ex, lt, nd,117609.62261025001, 0.0067781407998127475, 0.21605176344580795, -0.3836935694819316, 0.014950196258723736, 0.014813868328928947, 0.08856730163097382, 0.006620508152991533, -0.2143748551607132, -0.9767290353775024, -0.016828689724206924, 0.008808642625808716, -0.037507474422454834, 0.10647970615336382, -0.017249870559522013, 0.975995728632891,-0.18920088011648772,-0.013671875,-0.2011260986328125,-1.0170135498046875
20220201-1604,2022-02-01 16:04:31Z,u01, 205,40,movements,el-ex, lt, nd,117609.64755725, 0.0067599657700856955, 0.21576375800401779, -0.3815425994872407, -0.07978519797325134, 0.008402641862630844, 0.08231932669878006, 0.006603173445910215, -0.21409353613853455, -0.9767908453941345, -0.009746532887220383, -0.023607686161994934, -0.02113395929336548, 0.10635593439513008, -0.017117019205302828, 0.9762135902723682,-0.18815549427529418,-0.003143310546875,-0.237701416015625,-0.9979248046875
20220201-1604,2022-02-01 16:04:31Z,u01, 206,40,movements,el-ex, lt, nd,117609.67250525001, 0.005859440098056631, 0.21106612478184567, -0.37952051427598593, -0.3301909863948822, -0.036871496587991714, 0.08482283353805542, 0.005729375407099724, -0.20950248837471008, -0.9777913093566895, 0.007866151630878448, -0.02090504765510559, -0.023246288299560547, 0.10399550968436976, -0.017007873919727298, 0.9766399993226045,-0.18727017817733296,0.0109100341796875,-0.2358551025390625,-1.0005950927734375
20220201-1604,2022-02-01 16:04:31Z,u01, 207,40,movements,el-ex, lt, nd,117609.69745225001, 0.003838035000418877, 0.1993012560788618, -0.3770740886239945, -0.5751383304595947, -0.07606536895036697, 0.10909794270992279, 0.003762052394449711, -0.1979844719171524, -0.9801979660987854, 0.008063457906246185, -0.02543453872203827, -0.027034759521484375, 0.09808054552301237, -0.016770137905850586, 0.9774403541964702,-0.18630438554646014,0.0118255615234375,-0.223419189453125,-1.007232666015625
20220201-1604,2022-02-01 16:04:31Z,u01, 208,40,movements,el-ex, lt, nd,117609.72240025, 0.0015540132692455045, 0.18600341901766854, -0.37471625159243865, -0.4329347610473633, -0.060302987694740295, 0.0698050707578659, 0.0015272077871486545, -0.18493273854255676, -0.9827499985694885, -0.0011457913788035512, 0.023861154913902283, -0.019340455532073975, 0.09138655877877076, -0.016537780619918986, 0.9782670902183065,-0.1853879896009119,-0.00128173828125,-0.18499755859375,-0.993011474609375
20220201-1604,2022-02-01 16:04:32Z,u01, 209,40,movements,el-ex, lt, nd,117609.74734825, -0.00018402176328632974, 0.18136977666372156, -0.3728130340436108, -0.002698372583836317, -0.042638104408979416, 0.05604277551174164, -0.00018100335728377104, -0.1803770512342453, -0.9835975170135498, 0.0062081776559352875, 0.04629826545715332, -0.022094011306762695, 0.0889748326409048, -0.016873542950779356, 0.9786372184518362,-0.18457551393821575,0.0060272216796875,-0.1340789794921875,-1.0056915283203125
20220201-1604,2022-02-01 16:04:32Z,u01, 210,40,movements,el-ex, lt, nd,117609.77229525, -0.0017815751692541477, 0.18068773806821, -0.3718062353921751, -0.11257027834653854, -0.07490016520023346, 0.03860386833548546, -0.0017525707371532917, -0.1797061562538147, -0.983718752861023, 0.007077839225530624, 0.0052220821380615234, 0.01094043254852295, 0.08850247708676284, -0.017547789634514727, 0.9787465101729181,-0.18415928011773838,0.0023040771484375,-0.17327880859375,-0.973052978515625
20220201-1604,2022-02-01 16:04:32Z,u01, 211,40,movements,el-ex, lt, nd,117609.79724325001, -0.0035431437718254294, 0.17528358753438728, -0.3710172839149768, -0.31348222494125366, -0.05530070513486862, 0.01781916245818138, -0.0034888454247266054, -0.1743873804807663, -0.9846709370613098, 0.001383081078529358, 0.0037637948989868164, 0.012152016162872314, 0.08570221138119963, -0.01787899874789703, 0.9790402268978657,-0.1838906613322052,-0.002105712890625,-0.170623779296875,-0.9725189208984375
20220201-1604,2022-02-01 16:04:32Z,u01, 212,40,movements,el-ex, lt, nd,117609.82219025001, -0.0047986161954902155, 0.16673942952220108, -0.3708984570137758, -0.3495814800262451, -0.05247628688812256, 2.0058825612068176e-05, -0.004732046741992235, -0.1659678816795349, -0.98611980676651, 0.01408563181757927, 0.005277782678604126, 0.01437908411026001, 0.08140422270437829, -0.01770450879219572, 0.9794002288500442,-0.1839434868280035,0.0089263916015625,-0.1598968505859375,-0.968780517578125
20220201-1604,2022-02-01 16:04:32Z,u01, 213,40,movements,el-ex, lt, nd,117609.84713825001, -0.0059580854996791315, 0.16045275643760024, -0.371098330701343, -0.11006713658571243, -0.05043497309088707, -0.017563994973897934, -0.0058815195225179195, -0.15976516902446747, -0.9871375560760498, 0.011862915009260178, 0.025533780455589294, 0.01046818494796753, 0.0782165674506061, -0.01770321455481182, 0.9796255353249743,-0.18412673690866702,0.0059814453125,-0.1342315673828125,-0.9766693115234375
20220201-1604,2022-02-01 16:04:32Z,u01, 214,40,movements,el-ex, lt, nd,117609.87208525001, -0.006056822365623088, 0.16393166318249164, -0.37177829022375447, 0.09604138880968094, 0.001602858304977417, -0.0367654524743557, -0.00597558356821537, -0.16319841146469116, -0.986575186252594, -0.012884330004453659, 0.011098995804786682, 0.013018608093261719, 0.07990537911755499, -0.0180981755786042, 0.9794225190190687,-0.1844427628720348,-0.01715087890625,-0.145477294921875,-0.981414794921875
20220201-1604,2022-02-01 16:04:32Z,u01, 215,40,movements,el-ex, lt, nd,117609.89703325, -0.004995688329642218, 0.16523799234121872, -0.372587871747139, -0.009878921322524548, -0.008236721158027649, -0.01837206445634365, -0.0049276226200163364, -0.1644870936870575, -0.9863669276237488, 0.009535729885101318, -0.005693987011909485, 0.01145237684249878, 0.08063582213950787, -0.01773134546426565, 0.9793041502083331,-0.1847884530326309,0.004608154296875,-0.1701812744140625,-0.97491455078125
20220201-1604,2022-02-01 16:04:32Z,u01, 216,40,movements,el-ex, lt, nd,117609.92198125001, -0.004102699639296079, 0.16053083572474147, -0.37285955287816563, -0.17227911949157715, -0.03165622800588608, 0.012974740006029606, -0.0040499381721019745, -0.15984223783016205, -0.9871342778205872, -0.002297766041010618, -0.03141121566295624, -0.002154052257537842, 0.0784107674577002, -0.016870643864230116, 0.9794759937399627,-0.18491620569874434,-0.004791259765625,-0.190155029296875,-0.989044189453125
20220201-1604,2022-02-01 16:04:32Z,u01, 217,40,movements,el-ex, lt, nd,117609.94692825, -0.004693211276672269, 0.15237013196957114, -0.37275703208457384, -0.19314974546432495, -0.017710253596305847, 0.009666360914707184, -0.004638819023966789, -0.15178123116493225, -0.9884032011032104, -0.00315847247838974, 0.003191322088241577, 0.00856006145477295, 0.07435949451399175, -0.016402777139535578, 0.979795574254935,-0.1849388422737725,-0.0077972412109375,-0.148590087890625,-0.9798431396484375
20220201-1604,2022-02-01 16:04:32Z,u01, 218,40,movements,el-ex, lt, nd,117609.97187625001, -0.005698743188791126, 0.15058457731841723, -0.3722395784266927, -0.12953877449035645, -0.011689843609929085, 0.029982352629303932, -0.005634223110973835, -0.15001611411571503, -0.9886674880981445, -0.0020715147256851196, -0.002541065216064453, 0.005482673645019531, 0.07339600359665058, -0.016711629121321667, 0.9799017892745662,-0.18473272436242286,-0.007110595703125,-0.1492156982421875,-0.9846343994140625
20220201-1604,2022-02-01 16:04:32Z,u01, 219,40,movements,el-ex, lt, nd,117609.99682325001, -0.005915001440247428, 0.15034035665791465, -0.37133180315538916, -0.17113253474235535, -0.021640412509441376, 0.03591860458254814, -0.005848247092217207, -0.14977465569972992, -0.9887028932571411, -0.0017354227602481842, -0.0055138468742370605, 0.005212843418121338, 0.07326397040970854, -0.016761823210538648, 0.9799929194043138,-0.18429719892189905,-0.0075836181640625,-0.1552886962890625,-0.983489990234375
20220201-1604,2022-02-01 16:04:32Z,u01, 220,40,movements,el-ex, lt, nd,117610.02177125, -0.006486755984991294, 0.14901607316799828, -0.37034596678904663, -0.1496516466140747, -0.006205329671502113, 0.037151046097278595, -0.006414822302758694, -0.14846518635749817, -0.9888968467712402, -0.005029320251196623, 0.011304125189781189, -0.00016260147094726562, 0.07257064664129327, -0.01688447980931464, 0.9801278684925364,-0.1838420713775979,-0.0113372802734375,-0.14080810546875,-0.992095947265625
20220201-1604,2022-02-01 16:04:32Z,u01, 221,40,movements,el-ex, lt, nd,117610.04671825001, -0.006783251624515914, 0.14622186018830088, -0.3699041244597682, -0.0896860659122467, -0.013728027231991291, 0.018879834562540054, -0.006710813380777836, -0.1457013636827469, -0.989305853843689, -0.0004456080496311188, 0.026850849390029907, 0.019380927085876465, 0.07117755754898024, -0.01675787311808546, 0.9802680604572691,-0.18365059832244446,-0.0071563720703125,-0.1188507080078125,-0.9699249267578125
20220201-1604,2022-02-01 16:04:32Z,u01, 222,40,movements,el-ex, lt, nd,117610.07166625, -0.007696466441197062, 0.14415502627248045, -0.3692831292296542, -0.20181339979171753, -0.03217414766550064, 0.02787545695900917, -0.007616560906171799, -0.14365626871585846, -0.9895983338356018, 0.0005059130489826202, -0.0033924877643585205, 0.015523016452789307, 0.0700858119950359, -0.016994449129547177, 0.9803916981209613,-0.18338856453732952,-0.0068511962890625,-0.1446380615234375,-0.9752655029296875
20220201-1604,2022-02-01 16:04:32Z,u01, 223,40,movements,el-ex, lt, nd,117610.09661325, -0.008839561586173312, 0.13810763598060707, -0.36839271825328557, -0.2923436462879181, -0.022257000207901, 0.0366024374961853, -0.008755279704928398, -0.13766901195049286, -0.9904395937919617, -0.006808735430240631, 0.005085587501525879, 0.00368422269821167, 0.06702350783054808, -0.016972132617402158, 0.9806753451619086,-0.1830180559469663,-0.01556396484375,-0.1325836181640625,-0.98675537109375
20220201-1604,2022-02-01 16:04:32Z,u01, 224,40,movements,el-ex, lt, nd,117610.12156125001, -0.009045729317710515, 0.13094894297508114, -0.36766821772409003, -0.1804899424314499, -0.002245674841105938, 0.028952043503522873, -0.008968161419034004, -0.1305750161409378, -0.9913978576660156, -0.0040323734283447266, 0.034872084856033325, 0.001789093017578125, 0.06349958091687963, -0.016397199278868523, 0.9809793528600674,-0.18269779226399827,-0.0196685791015625,-0.1021728515625,-0.98834228515625
20220201-1604,2022-02-01 16:04:32Z,u01, 225,40,movements,el-ex, lt, nd,117610.14650925, -0.008523922934652246, 0.1297401500375812, -0.36724342416239325, 0.014989443123340607, 0.019209615886211395, -0.002034570090472698, -0.008452181704342365, -0.12937648594379425, -0.9915595054626465, -0.0038159340620040894, 0.03039291501045227, -0.005754947662353516, 0.06295767230617998, -0.016017802848543674, 0.9810615501383793,-0.18247751607579826,-0.01226806640625,-0.0989837646484375,-0.997314453125
20220201-1604,2022-02-01 16:04:32Z,u01, 226,40,movements,el-ex, lt, nd,117610.17145625001, -0.008137827848516167, 0.13263375123027418, -0.36727699840625705, 0.0762024000287056, 0.02018127031624317, -0.0013486724346876144, -0.008066264912486076, -0.13224521279335022, -0.9911842346191406, -0.0011806115508079529, 0.00985465943813324, 0.01158517599105835, 0.06441210136951588, -0.016092713440262897, 0.9809673259335778,-0.1824702742185813,-0.00775146484375,-0.1211395263671875,-0.9806365966796875
20220201-1604,2022-02-01 16:04:32Z,u01, 227,40,movements,el-ex, lt, nd,117610.19640425, -0.008129441072596135, 0.1329818966806869, -0.36706615484896127, 0.033900514245033264, 0.035416483879089355, 0.0026242975145578384, -0.008057576604187489, -0.13259029388427734, -0.9911381602287292, -0.005370207130908966, 0.006949618458747864, -0.006511986255645752, 0.06458534039105303, -0.016113461187948493, 0.98097515663803,-0.1823651710105204,-0.013427734375,-0.125640869140625,-0.997650146484375
20220201-1604,2022-02-01 16:04:32Z,u01, 228,40,movements,el-ex, lt, nd,117610.22135125, -0.007357536619377702, 0.12934603848201645, -0.36676864583832464, -0.0028598271310329437, 0.03957274556159973, 0.012105816975235939, -0.0072960094548761845, -0.1289856731891632, -0.9916196465492249, 0.0016959835775196552, -0.003124728798866272, -0.012088239192962646, 0.06287439159026224, -0.015394866343609813, 0.9811267148946641,-0.1822094767035847,-0.0067291259765625,-0.1308746337890625,-1.0021820068359375
20220201-1604,2022-02-01 16:04:32Z,u01, 229,40,movements,el-ex, lt, nd,117610.24629925001, -0.0068960378734929505, 0.1284248541320529, -0.36682032991857405, 0.05723436921834946, 0.009784955531358719, -0.00042628683149814606, -0.006839193869382143, -0.128072127699852, -0.9917412996292114, 0.0050080870278179646, 0.022939279675483704, -0.0021704435348510742, 0.06246409730713282, -0.015086366789079346, 0.9811550316633653,-0.18222416184458962,-0.0018310546875,-0.105133056640625,-0.9939117431640625
20220201-1604,2022-02-01 16:04:32Z,u01, 230,40,movements,el-ex, lt, nd,117610.27124625, -0.006618919203876563, 0.12911252065156534, -0.3672279538808865, 0.009657062590122223, 0.004220413044095039, -0.01631137728691101, -0.006563778966665268, -0.12875409424304962, -0.9916548132896423, 0.001360483467578888, 0.0003058016300201416, 0.001954495906829834, 0.0628236658064508, -0.015025732927925296, 0.9810979231547261,-0.18241256222229726,-0.0117645263671875,-0.127471923828125,-0.989288330078125
20220201-1604,2022-02-01 16:04:32Z,u01, 231,40,movements,el-ex, lt, nd,117610.29619425001, -0.0065660137897520735, 0.1292081775284646, -0.3669560182138719, 0.032131411135196686, 0.014823123812675476, 0.011185362003743649, -0.00651123421266675, -0.12884895503520966, -0.9916428327560425, 0.006709549576044083, 0.0025368928909301758, -0.0054122209548950195, 0.06287745654666076, -0.014999933811274499, 0.981120098233273,-0.18227708383764343,0.0001983642578125,-0.126312255859375,-0.9970550537109375
20220201-1604,2022-02-01 16:04:32Z,u01, 232,40,movements,el-ex, lt, nd,117610.32114225, -0.00607942347678737, 0.12860923918911213, -0.3668255372081901, 0.040483683347702026, 0.017054453492164612, 0.002509981393814087, -0.00602917792275548, -0.1282549947500229, -0.9917228817939758, 0.0062732696533203125, 0.009434998035430908, 0.00161057710647583, 0.06262891941074335, -0.014702678063933715, 0.9811547604532629,-0.18220039246057187,-0.0023651123046875,-0.1208038330078125,-0.9904022216796875
20220201-1604,2022-02-01 16:04:32Z,u01, 233,40,movements,el-ex, lt, nd,117610.34608925, -0.005430800984881205, 0.12956969605139837, -0.3672514767220716, 0.05046617612242699, 0.035001032054424286, -0.026463812217116356, -0.005385251250118017, -0.12920746207237244, -0.9916029572486877, 0.00015143677592277527, 0.009471938014030457, 0.011912405490875244, 0.06315612565046304, -0.014485249772778064, 0.9810899736800736,-0.18238464685372038,-0.0052337646484375,-0.1197357177734375,-0.9796905517578125
20220201-1604,2022-02-01 16:04:32Z,u01, 234,40,movements,el-ex, lt, nd,117610.37103725, -0.004666705689705516, 0.1305533528593088, -0.36743229367705804, 0.05128047242760658, 0.022838439792394638, 0.006545602343976498, -0.004626975394785404, -0.13018280267715454, -0.991479218006134, 0.002231296617537737, -0.0003254115581512451, 0.003716766834259033, 0.06370707141265439, -0.014205730732274803, 0.9810472257454325,-0.18244450468631332,0.000152587890625,-0.1323699951171875,-0.9834442138671875
20220201-1604,2022-02-01 16:04:32Z,u01, 235,40,movements,el-ex, lt, nd,117610.39598425, -0.004146418831892156, 0.13078509527798357, -0.3670912597483773, 0.0059383586049079895, 0.023880401626229286, 0.025232337415218353, -0.004110995680093765, -0.13041257858276367, -0.9914512634277344, -0.0026181787252426147, 5.6937336921691895e-05, -0.003742218017578125, 0.06387058858471756, -0.013960730739516128, 0.9810745831669604,-0.1822594783505271,-0.0067291259765625,-0.1303558349609375,-0.9951934814453125
20220201-1604,2022-02-01 16:04:32Z,u01, 236,40,movements,el-ex, lt, nd,117610.42093225001, -0.0037156004848047713, 0.12883736358572376, -0.3664894371449832, -0.04950665682554245, 0.013541743159294128, 0.016870278865098953, -0.0036847968585789204, -0.12848122417926788, -0.9917051196098328, 0.006553400307893753, 0.002657458186149597, 0.006872355937957764, 0.0629584221698564, -0.013553199722511844, 0.9811947165579267,-0.18196023851328952,0.00225830078125,-0.1304779052734375,-0.98492431640625
20220201-1604,2022-02-01 16:04:32Z,u01, 237,40,movements,el-ex, lt, nd,117610.44587925001, -0.003188055210155428, 0.1291018507510875, -0.3664906558288447, 0.07550399005413055, 0.035550907254219055, -0.030793379992246628, -0.0031615186017006636, -0.128743514418602, -0.9916728734970093, -0.006939850747585297, 0.01769024133682251, -0.00031626224517822266, 0.0631361686305139, -0.013318458926365434, 0.9811897456282281,-0.18194287465932854,-0.010101318359375,-0.111053466796875,-0.9919891357421875
20220201-1604,2022-02-01 16:04:32Z,u01, 238,40,movements,el-ex, lt, nd,117610.47082725001, -0.002285821821494564, 0.13278199757913783, -0.36746139044297166, 0.18201102316379547, 0.03188300132751465, -0.043067291378974915, -0.002265698742121458, -0.13239215314388275, -0.9911948442459106, 0.0038983412086963654, 0.01967567205429077, -0.004471719264984131, 0.06501723557072496, -0.013241833644824634, 0.9809884638959684,-0.182370668148984,-0.00299072265625,-0.110565185546875,-0.9937591552734375
20220201-1604,2022-02-01 16:04:32Z,u01, 239,40,movements,el-ex, lt, nd,117610.49577425001, -0.0014779418985961898, 0.13596221448745527, -0.3680700399879125, 0.05153387412428856, 0.012262227013707161, -0.008983822539448738, -0.0014643019530922174, -0.13554370403289795, -0.9907702803611755, 0.007064230740070343, -0.0009307116270065308, 0.004976212978363037, 0.06664672838506654, -0.013155632627873773, 0.9808330329667998,-0.1826245391809426,0.0055999755859375,-0.136474609375,-0.9857940673828125
20220201-1604,2022-02-01 16:04:32Z,u01, 240,40,movements,el-ex, lt, nd,117610.52072225, -0.0012287412314622732, 0.13436129938029595, -0.3682839989671304, 0.0075081586837768555, 0.019967418164014816, -0.00984175968915224, -0.0012176664313301444, -0.1339574009180069, -0.9909863471984863, -0.013446077704429626, 0.005203917622566223, 0.003925800323486328, 0.06588294876153825, -0.012894350521194543, 0.9808684407959294,-0.1827305626021146,-0.0132904052734375,-0.133819580078125,-0.9868621826171875
20220201-1604,2022-02-01 16:04:32Z,u01, 241,40,movements,el-ex, lt, nd,117610.54567025001, -0.00076816908114526, 0.13400574751261787, -0.36892829347963085, 0.11369504779577255, 0.040961649268865585, -0.04176480323076248, -0.0007612821063958108, -0.13360503315925598, -0.9910343885421753, -0.008790772408246994, 0.0180656760931015, 0.0028293728828430176, 0.06574657805802578, -0.012657178709611546, 0.9808241523725575,-0.18303348828899033,-0.009552001953125,-0.11553955078125,-0.9882049560546875
20220201-1604,2022-02-01 16:04:32Z,u01, 242,40,movements,el-ex, lt, nd,117610.57061775001, 0.0005194728056158734, 0.13577396809657874, -0.36997414805245993, 0.11757433414459229, 0.03293301910161972, -0.04519788548350334, 0.0005146919866092503, -0.13535720109939575, -0.9907967448234558, 0.00032449507853016257, 0.004040271043777466, -0.0007498860359191895, 0.06672515665920052, -0.012222405876512405, 0.9806777214943634,-0.18349281982297277,0.000213623046875,-0.1318359375,-0.9908294677734375
20220201-1604,2022-02-01 16:04:32Z,u01, 243,40,movements,el-ex, lt, nd,117610.59556575, 0.0012531546358112383, 0.13946562160423348, -0.37128359962491814, 0.14637956023216248, 0.028291260823607445, -0.054446376860141754, 0.001240986748598516, -0.13901394605636597, -0.9902896285057068, -0.00011188536882400513, 0.009802713990211487, 0.0013827681541442871, 0.06859448356641312, -0.012246348075193605, 0.9804373482357198,-0.18408580008212072,0.001129150390625,-0.12921142578125,-0.9889068603515625
20220201-1604,2022-02-01 16:04:32Z,u01, 244,40,movements,el-ex, lt, nd,117610.62051275001, 0.0015863715009379147, 0.14054954222491114, -0.372684365123882, 0.10258021205663681, 0.021760256960988045, -0.057080645114183426, 0.0015707279089838266, -0.14008726179599762, -0.9901379346847534, 0.002488061785697937, -0.004398033022880554, 0.004084408283233643, 0.06914794369701714, -0.012231251314884275, 0.9802729997506191,-0.18475356864543488,0.0017852783203125,-0.144622802734375,-0.9851531982421875
20220201-1604,2022-02-01 16:04:32Z,u01, 245,40,movements,el-ex, lt, nd,117610.64546075, 0.0023459600455803583, 0.1424941506430725, -0.37413996166706937, 0.12919680774211884, 0.03482259809970856, -0.05964680016040802, 0.002322181360796094, -0.14201243221759796, -0.9898621439933777, 0.003628697246313095, -0.0021066516637802124, 0.009408652782440186, 0.07016239221176439, -0.012089778588095094, 0.9800755362094602,-0.18542678608641391,0.005950927734375,-0.1441192626953125,-0.9804534912109375
20220201-1604,2022-02-01 16:04:32Z,u01, 246,40,movements,el-ex, lt, nd,117610.67040775, 0.0033145420077560746, 0.14419963640187325, -0.3753402440191605, 0.10850787907838821, 0.02810257486999035, -0.03265173360705376, 0.003280135104432702, -0.14370042085647583, -0.989615797996521, -0.00013687461614608765, -0.01872919499874115, 0.009696364402770996, 0.07108080186892289, -0.011816082895587516, 0.9799100800170666,-0.18596816529645246,0.0022125244140625,-0.164764404296875,-0.9768524169921875
